trial,trial_type,event_type,absolute_time,response_time,response,result
NA,NA,2,0.00009999999985943475,NA,NA,NA
0,INSTRUCTIONS,8,0.0030000000000001137,NA,NA,NA
NA,RATE_FACES,8,499.26380000000006,NA,NA,NA
0,RATE_FACES,4,499.27509999999984,,,
0,RATE_FACES,7,501.28369999999995,2.0025000000000546,right,correct
0,RATE_FACES,9,501.60119999999995,NA,NA,NA
1,RATE_FACES,4,502.6005999999999,,,
1,RATE_FACES,7,503.342,0.7342000000002145,left,correct
1,RATE_FACES,9,503.65739999999994,NA,NA,NA
2,RATE_FACES,4,504.6645,,,
2,RATE_FACES,7,506.1480999999999,1.4701000000001159,left,incorrect
2,RATE_FACES,7,507.20899999999995,1.038000000000011,right,correct
3,RATE_FACES,4,508.5288999999999,,,
3,RATE_FACES,7,509.47450000000003,0.9421999999999571,right,correct
3,RATE_FACES,9,509.7898,NA,NA,NA
4,RATE_FACES,4,510.81089999999995,,,
4,RATE_FACES,7,511.50749999999994,0.6914000000000442,left,correct
4,RATE_FACES,9,511.82269999999994,NA,NA,NA
5,RATE_FACES,4,512.8445,,,
5,RATE_FACES,7,514.1570999999999,1.3061999999998761,right,correct
5,RATE_FACES,9,514.473,NA,NA,NA
6,RATE_FACES,4,515.4952,,,
6,RATE_FACES,7,516.2235,0.7193000000000893,left,correct
6,RATE_FACES,9,516.5390999999998,NA,NA,NA
7,RATE_FACES,4,517.5623,,,
7,RATE_FACES,7,518.389,0.8137999999997874,right,correct
7,RATE_FACES,9,518.7052,NA,NA,NA
8,RATE_FACES,4,519.7113,,,
8,RATE_FACES,7,520.6228,0.9004999999999654,left,correct
8,RATE_FACES,9,520.9386999999999,NA,NA,NA
9,RATE_FACES,4,521.9641999999999,,,
9,RATE_FACES,7,523.0723999999999,1.1065000000000964,left,correct
9,RATE_FACES,9,523.3880999999999,NA,NA,NA
10,RATE_FACES,4,524.3955,,,
10,RATE_FACES,7,525.0377,0.6338000000000648,left,correct
10,RATE_FACES,9,525.3376999999999,NA,NA,NA
11,RATE_FACES,4,526.3611999999999,,,
11,RATE_FACES,7,527.2221999999999,0.8536000000001422,right,correct
11,RATE_FACES,9,527.5378000000001,NA,NA,NA
12,RATE_FACES,4,528.561,,,
12,RATE_FACES,7,529.2215999999999,0.6504000000001042,left,correct
12,RATE_FACES,9,529.5373999999999,NA,NA,NA
13,RATE_FACES,4,530.5596999999999,,,
13,RATE_FACES,7,532.2880999999999,1.7191000000001395,right,correct
13,RATE_FACES,9,532.6036999999999,NA,NA,NA
14,RATE_FACES,4,533.6258999999999,,,
14,RATE_FACES,7,535.1047,1.4685000000000628,right,correct
14,RATE_FACES,9,535.42,NA,NA,NA
15,RATE_FACES,4,536.4427,,,
15,RATE_FACES,7,537.2715,0.8163999999999305,left,incorrect
15,RATE_FACES,7,538.2375999999998,0.9447000000000116,right,correct
16,RATE_FACES,4,539.5588999999999,,,
16,RATE_FACES,7,540.8536999999999,1.2881000000000995,left,correct
16,RATE_FACES,9,541.1688999999999,NA,NA,NA
17,RATE_FACES,4,542.1753,,,
17,RATE_FACES,7,543.1033999999999,0.9150000000000773,right,correct
17,RATE_FACES,9,543.4188,NA,NA,NA
18,RATE_FACES,4,544.4254999999999,,,
18,RATE_FACES,7,545.9195999999998,1.4828999999999724,left,correct
18,RATE_FACES,9,546.2345999999999,NA,NA,NA
19,RATE_FACES,4,547.2448999999999,,,
19,RATE_FACES,7,548.2028,0.9538000000000011,right,correct
19,RATE_FACES,9,548.5183000000001,NA,NA,NA
20,RATE_FACES,4,549.5372,,,
20,RATE_FACES,7,550.4188,0.8779999999999291,left,correct
20,RATE_FACES,9,550.7335999999998,NA,NA,NA
21,RATE_FACES,4,551.7416999999999,,,
21,RATE_FACES,7,553.0518000000001,1.299199999999928,left,correct
21,RATE_FACES,9,553.3676999999999,NA,NA,NA
22,RATE_FACES,4,554.3740999999999,,,
22,RATE_FACES,7,555.7181999999999,1.332700000000159,left,correct
22,RATE_FACES,9,556.034,NA,NA,NA
23,RATE_FACES,4,557.0570999999999,,,
23,RATE_FACES,7,558.5013999999999,1.4329000000001315,right,correct
23,RATE_FACES,9,558.8168999999999,NA,NA,NA
0,PRACTICE,8,559.8263999999999,NA,NA,NA
NA,PRACTICE,8,573.2555,NA,NA,NA
NA,PRACTICE,3,573.2651999999999,NA,NA,NA
0,angry_high,5,576.27,NA,NA,high
0,angry_high,11,577.4975999999998,NA,NA,NA
0,angry_high,12,578.3155999999999,0.8115999999997712,right,incorrect
0,angry_high,6,579.348,NA,NA,NA
0,angry_high,7,580.1348,0.7863999999999578,right,incorrect
0,angry_high,9,580.2347,NA,-50,wrong angry
0,angry_high,3,581.7343999999999,NA,NA,NA
1,sad_high,5,583.7661999999999,NA,NA,high
1,sad_high,11,584.9668,NA,NA,NA
1,sad_high,12,585.0183000000001,0.04770000000019081,left,incorrect
1,sad_high,6,586.0305,NA,NA,NA
1,sad_high,7,586.7848999999999,0.7540000000000191,left,incorrect
1,sad_high,9,586.9463999999999,NA,-50,wrong sad
1,sad_high,3,588.4512,NA,NA,NA
2,angry_low,5,591.4920999999998,NA,NA,low
2,angry_low,11,592.6960999999999,NA,NA,NA
2,angry_low,12,592.7970999999999,0.0926000000000613,right,incorrect
2,angry_low,6,593.8136999999999,NA,NA,NA
2,angry_low,7,594.312,0.4875000000000682,right,incorrect
2,angry_low,9,594.731,NA,-50,wrong angry
2,angry_low,3,596.245,NA,NA,NA
3,sad_low,5,598.2666999999999,NA,NA,low
3,sad_low,11,599.4620999999999,NA,NA,NA
3,sad_low,12,599.9628999999999,0.4861999999999398,right,correct
3,sad_low,6,600.9793000000001,NA,NA,NA
3,sad_low,7,601.6617,0.6738999999998896,right,correct
3,sad_low,9,601.8995999999999,NA,-1,correct sad
3,sad_low,3,603.3943999999999,NA,NA,NA
0,MAIN,8,606.4003,NA,NA,NA
NA,MAIN,8,638.1958999999999,NA,NA,NA
NA,MAIN,3,638.1965999999999,NA,NA,NA
0,angry_low,5,641.1793,NA,NA,low
0,angry_low,11,642.3895,NA,NA,NA
0,angry_low,12,643.4069,1.0070000000000618,right,incorrect
0,angry_low,6,644.4233999999999,NA,NA,NA
0,angry_low,7,645.0388,0.613800000000083,left,correct
0,angry_low,9,645.2416999999999,NA,-2,correct angry
0,angry_low,3,646.7556999999999,NA,NA,NA
1,sad_high,5,648.7610999999998,NA,NA,high
1,sad_high,11,649.9718,NA,NA,NA
1,sad_high,12,650.3725999999998,0.3931000000001177,left,incorrect
1,sad_high,6,651.389,NA,NA,NA
1,sad_high,7,651.9391999999999,0.5372000000002117,right,correct
1,sad_high,9,652.2095,NA,6,correct sad
1,sad_high,3,653.7212,NA,NA,NA
2,angry_low,5,656.7418999999999,NA,NA,low
2,angry_low,11,657.954,NA,NA,NA
2,angry_low,12,658.105,0.13859999999988304,left,correct
2,angry_low,6,659.1213,NA,NA,NA
2,angry_low,7,659.7535999999999,0.6204999999999927,left,correct
2,angry_low,9,659.9404,NA,-4,correct angry
2,angry_low,3,661.4535,NA,NA,NA
3,sad_high,5,664.4748000000001,NA,NA,high
3,sad_high,11,665.6863999999999,NA,NA,NA
3,sad_high,12,665.8205,0.1190999999998894,right,correct
3,sad_high,6,666.837,NA,NA,NA
3,sad_high,7,667.4858999999999,0.6401999999999362,right,correct
3,sad_high,9,667.655,NA,-6,correct sad
3,sad_high,3,669.1691999999999,NA,NA,NA
4,sad_high,5,671.1745,NA,NA,high
4,sad_high,11,672.3855999999998,NA,NA,NA
4,sad_high,12,672.6365,0.2437999999999647,right,correct
4,sad_high,6,673.653,NA,NA,NA
4,sad_high,7,674.0187,0.3532999999999902,right,correct
4,sad_high,9,674.4718,NA,29,correct sad
4,sad_high,3,675.9852,NA,NA,NA
5,angry_low,5,679.0093,NA,NA,low
5,angry_low,11,680.2012,NA,NA,NA
5,angry_low,12,680.5514,0.34740000000010696,left,correct
5,angry_low,6,681.5685999999998,NA,NA,NA
5,angry_low,7,681.9508000000001,0.3725000000000591,left,correct
5,angry_low,9,682.3873999999998,NA,27,correct angry
5,angry_low,3,683.9006999999999,NA,NA,NA
6,sad_high,5,686.4290999999998,NA,NA,high
6,sad_high,11,687.6375999999999,NA,NA,NA
6,sad_high,12,688.0505999999998,0.4073000000000775,right,correct
6,sad_high,6,689.0705,NA,NA,NA
6,sad_high,7,689.7373,0.6664999999999281,left,incorrect
6,sad_high,9,689.8833999999999,NA,-50,wrong sad
6,sad_high,3,691.4038999999999,NA,NA,NA
7,angry_low,5,694.4260999999999,NA,NA,low
7,angry_low,11,695.6368999999999,NA,NA,NA
7,angry_low,12,696.5210999999998,0.880800000000022,left,correct
7,angry_low,6,697.5330999999999,NA,NA,NA
7,angry_low,7,698.2814999999999,0.7442000000002054,left,correct
7,angry_low,9,698.3350999999999,NA,-19,correct angry
7,angry_low,3,699.8362,NA,NA,NA
8,sad_high,5,701.8415,NA,NA,high
8,sad_high,11,703.0525,NA,NA,NA
8,sad_high,12,703.3992,0.3363999999999123,right,correct
8,sad_high,6,704.4193999999999,NA,NA,NA
8,sad_high,7,704.8305999999999,0.403699999999958,right,correct
8,sad_high,9,705.2337,NA,24,correct sad
8,sad_high,3,706.7357,NA,NA,NA
9,sad_high,5,709.2578000000001,NA,NA,high
9,sad_high,11,710.4676999999999,NA,NA,NA
9,sad_high,12,710.7980999999999,0.3209999999999127,right,correct
9,sad_high,6,711.8015999999999,NA,NA,NA
9,sad_high,7,711.9465,0.13949999999999818,right,correct
9,sad_high,9,712.6176999999999,NA,57,correct sad
9,sad_high,3,714.1175,NA,NA,NA
10,angry_low,5,716.6433999999999,NA,NA,low
10,angry_low,11,717.8463,NA,NA,NA
10,angry_low,12,720.0638999999999,2.2148999999999432,left,correct
10,angry_low,6,721.08,NA,NA,NA
10,angry_low,7,721.4956999999999,0.4050999999998339,left,correct
10,angry_low,9,721.8823,NA,23,correct angry
10,angry_low,3,723.3958,NA,NA,NA
11,angry_low,5,726.4223999999999,NA,NA,low
11,angry_low,11,727.6324999999999,NA,NA,NA
11,angry_low,12,728.0677,0.4318000000000666,left,correct
11,angry_low,6,729.0790999999998,NA,NA,NA
11,angry_low,7,729.3275,0.24120000000004893,left,correct
11,angry_low,9,729.8980999999999,NA,44,correct angry
11,angry_low,3,731.3990999999999,NA,NA,NA
12,angry_low,5,733.9042,NA,NA,low
12,angry_low,11,735.1318,NA,NA,NA
12,angry_low,12,735.7325999999998,0.5968000000002576,left,correct
12,angry_low,6,736.7445999999999,NA,NA,NA
12,angry_low,7,737.1147,0.36960000000010496,left,correct
12,angry_low,9,737.5623,NA,29,correct angry
12,angry_low,3,739.0640999999998,NA,NA,NA
13,sad_high,5,741.0681999999999,NA,NA,high
13,sad_high,11,742.2933,NA,NA,NA
13,sad_high,12,742.9145999999998,0.6176999999997861,right,correct
13,sad_high,6,743.9312,NA,NA,NA
13,sad_high,7,744.1637,0.2319999999999709,right,correct
13,sad_high,9,744.7447,NA,46,correct sad
13,sad_high,3,746.2469000000001,NA,NA,NA
14,sad_low,5,749.2878000000001,NA,NA,low
14,sad_low,11,750.4754999999998,NA,NA,NA
14,sad_low,12,750.8643000000001,0.3846000000000913,left,incorrect
14,sad_low,6,751.8766999999999,NA,NA,NA
14,sad_low,7,752.0125999999999,0.13560000000018135,left,incorrect
14,sad_low,9,752.6923,NA,-50,wrong sad
14,sad_low,3,754.1944999999997,NA,NA,NA
15,angry_low,5,756.7379999999997,NA,NA,low
15,angry_low,11,757.9412,NA,NA,NA
15,angry_low,12,758.5919999999998,0.6477000000002135,right,incorrect
15,angry_low,6,759.6088000000001,NA,NA,NA
15,angry_low,7,760.0745999999998,0.46049999999991087,right,incorrect
15,angry_low,9,760.4249000000001,NA,-50,wrong angry
15,angry_low,3,761.9405999999999,NA,NA,NA
16,angry_low,5,763.9652,NA,NA,low
16,angry_low,11,765.1738,NA,NA,NA
16,angry_low,12,765.5912,0.4040999999996302,left,correct
16,angry_low,6,766.6076999999999,NA,NA,NA
16,angry_low,7,766.8562,0.24589999999989232,left,correct
16,angry_low,9,767.4255999999998,NA,44,correct angry
16,angry_low,3,768.9394999999997,NA,NA,NA
17,sad_high,5,771.4449999999997,NA,NA,high
17,sad_high,11,772.6727,NA,NA,NA
17,sad_high,12,773.0894000000002,0.40360000000009677,right,correct
17,sad_high,6,774.1068,NA,NA,NA
17,sad_high,7,774.3393000000001,0.2195000000000391,right,correct
17,sad_high,9,774.9244000000001,NA,46,correct sad
17,sad_high,3,776.4386999999999,NA,NA,NA
18,angry_high,5,778.4434999999997,NA,NA,high
18,angry_high,11,779.6718000000001,NA,NA,NA
18,angry_high,12,780.1226999999999,0.44570000000021537,right,incorrect
18,angry_high,6,781.1394000000001,NA,NA,NA
18,angry_high,7,781.6543,0.5140999999996438,right,incorrect
18,angry_high,9,781.9552,NA,-50,wrong angry
18,angry_high,3,783.4714999999998,NA,NA,NA
19,sad_high,5,785.9895999999999,NA,NA,high
19,sad_high,11,787.1877,NA,NA,NA
19,sad_high,12,787.7385999999999,0.5371000000001231,right,correct
19,sad_high,6,788.7545999999999,NA,NA,NA
19,sad_high,7,789.0539000000001,0.28720000000021173,right,correct
19,sad_high,9,789.5736999999999,NA,38,correct sad
19,sad_high,3,791.0870999999999,NA,NA,NA
20,angry_low,5,794.1054999999998,NA,NA,low
20,angry_low,11,795.3198,NA,NA,NA
20,angry_low,12,795.4040999999999,0.07170000000019172,left,correct
20,angry_low,6,796.4203,NA,NA,NA
20,angry_low,7,796.5194000000001,0.08879999999987831,left,correct
20,angry_low,9,797.2384999999997,NA,63,correct angry
20,angry_low,3,798.7528000000001,NA,NA,NA
21,sad_high,5,800.7579000000002,NA,NA,high
21,sad_high,11,801.9855999999999,NA,NA,NA
21,sad_high,12,802.0363,0.043000000000006366,right,correct
21,sad_high,6,803.0529999999998,NA,NA,NA
21,sad_high,7,803.3184000000001,0.2533000000003085,right,correct
21,sad_high,9,803.8704000000001,NA,42,correct sad
21,sad_high,3,805.3848,NA,NA,NA
22,angry_high,5,808.3897,NA,NA,high
22,angry_high,11,809.6013,NA,NA,NA
22,angry_high,12,809.9024000000002,0.2860000000000582,right,incorrect
22,angry_high,6,810.9184000000001,NA,NA,NA
22,angry_high,7,811.1509000000001,0.23089999999990596,right,incorrect
22,angry_high,9,811.7348000000001,NA,-50,wrong angry
22,angry_high,3,813.2509000000001,NA,NA,NA
23,sad_high,5,815.7710999999998,NA,NA,high
23,sad_high,11,816.9671999999999,NA,NA,NA
23,sad_high,12,823.0681999999999,6.078300000000354,right,correct
23,sad_high,6,824.0836999999999,NA,NA,NA
23,sad_high,7,824.4659999999998,0.37189999999998236,right,correct
23,sad_high,9,824.9014000000001,NA,27,correct sad
23,sad_high,3,826.4159999999997,NA,NA,NA
24,angry_low,5,828.4227,NA,NA,low
24,angry_low,11,829.6320999999998,NA,NA,NA
24,angry_low,12,830.0324999999998,0.39679999999975735,left,correct
24,angry_low,6,831.0494999999997,NA,NA,NA
24,angry_low,7,831.5151999999999,0.4529000000003407,left,correct
24,angry_low,9,831.8674000000001,NA,17,correct angry
24,angry_low,3,833.3818,NA,NA,NA
25,sad_high,5,835.8830999999999,NA,NA,high
25,sad_high,11,837.0812,NA,NA,NA
25,sad_high,12,837.1651999999999,0.06879999999978281,right,correct
25,sad_high,6,838.1814999999998,NA,NA,NA
25,sad_high,7,838.3974000000002,0.2076000000000704,right,correct
25,sad_high,9,838.9998,NA,48,correct sad
25,sad_high,3,840.5138000000001,NA,NA,NA
26,angry_low,5,843.5414999999998,NA,NA,low
26,angry_low,11,844.7510999999998,NA,NA,NA
26,angry_low,12,845.1858000000001,0.43119999999964875,left,correct
26,angry_low,6,846.1970999999999,NA,NA,NA
26,angry_low,7,846.6174999999997,0.42010000000004766,left,correct
26,angry_low,9,847.0160999999998,NA,22,correct angry
26,angry_low,3,848.5163,NA,NA,NA
27,angry_low,5,850.5399000000001,NA,NA,low
27,angry_low,11,851.7459000000001,NA,NA,NA
27,angry_low,12,852.1469000000002,0.3952999999999065,left,correct
27,angry_low,6,853.1633,NA,NA,NA
27,angry_low,7,853.3790999999999,0.20339999999987413,left,correct
27,angry_low,9,853.9809999999998,NA,48,correct angry
27,angry_low,3,855.4954000000001,NA,NA,NA
28,sad_high,5,858.4997,NA,NA,high
28,sad_high,11,859.7117,NA,NA,NA
28,sad_high,12,860.1125999999998,0.3862000000002581,right,correct
28,sad_high,6,861.1289000000002,NA,NA,NA
28,sad_high,7,861.5453,0.41250000000002274,right,correct
28,sad_high,9,861.9464000000002,NA,23,correct sad
28,sad_high,3,863.4609999999998,NA,NA,NA
29,angry_low,5,865.4668,NA,NA,low
29,angry_low,11,866.6938,NA,NA,NA
29,angry_low,12,867.0113,0.30979999999976826,left,correct
29,angry_low,6,868.0274999999998,NA,NA,NA
29,angry_low,7,868.2770999999999,0.2379999999999427,left,correct
29,angry_low,9,868.8294000000001,NA,44,correct angry
29,angry_low,3,870.3435999999998,NA,NA,NA
30,sad_low,5,873.3710999999998,NA,NA,low
30,sad_low,11,874.5804000000002,NA,NA,NA
30,sad_low,12,874.8310999999999,0.24769999999978154,left,incorrect
30,sad_low,6,875.8433,NA,NA,NA
30,sad_low,7,876.1460999999998,0.3023999999999205,left,incorrect
30,sad_low,9,876.6601999999999,NA,-50,wrong sad
30,sad_low,3,878.1634000000001,NA,NA,NA
31,sad_low,5,880.6991999999999,NA,NA,low
31,sad_low,11,881.8804000000001,NA,NA,NA
31,sad_low,12,882.2089999999997,0.32469999999966603,left,incorrect
31,sad_low,6,883.2295999999999,NA,NA,NA
31,sad_low,7,883.6587,0.41570000000012897,right,correct
31,sad_low,9,884.0439000000001,NA,21,correct sad
31,sad_low,3,885.5460999999998,NA,NA,NA
32,angry_high,5,888.5662,NA,NA,high
32,angry_high,11,889.7951999999999,NA,NA,NA
32,angry_high,12,890.1794999999997,0.3808999999998832,right,incorrect
32,angry_high,6,891.1949999999997,NA,NA,NA
32,angry_high,7,891.4448,0.24950000000001182,right,incorrect
32,angry_high,9,892.0079000000002,NA,-50,wrong angry
32,angry_high,3,893.5114999999997,NA,NA,NA
33,sad_low,5,896.5470999999999,NA,NA,low
33,sad_low,11,897.7444000000002,NA,NA,NA
33,sad_low,12,898.2297,0.4817999999997937,right,correct
33,sad_low,6,899.2404000000001,NA,NA,NA
33,sad_low,7,899.6605999999998,0.4199999999999591,right,correct
33,sad_low,9,900.0599999999997,NA,22,correct sad
33,sad_low,3,901.5601999999999,NA,NA,NA
34,angry_high,5,904.0795999999998,NA,NA,high
34,angry_high,11,905.2941999999999,NA,NA,NA
34,angry_high,12,905.5934999999997,0.2964999999999236,left,correct
34,angry_high,6,906.6069000000001,NA,NA,NA
34,angry_high,7,906.8259000000002,0.21860000000015134,left,correct
34,angry_high,9,907.4250999999998,NA,48,correct angry
34,angry_high,3,908.9263000000001,NA,NA,NA
35,sad_low,5,910.9469000000001,NA,NA,low
35,sad_low,11,912.1589999999998,NA,NA,NA
35,sad_low,12,912.3889000000001,0.22420000000022355,right,correct
35,sad_low,6,913.4089999999998,NA,NA,NA
35,sad_low,7,913.6250999999999,0.21580000000028576,right,correct
35,sad_low,9,914.2233,NA,48,correct sad
35,sad_low,3,915.7254999999998,NA,NA,NA
36,angry_high,5,918.7471999999999,NA,NA,high
36,angry_high,11,919.9738,NA,NA,NA
36,angry_high,12,920.1044999999998,0.12000000000000455,left,correct
36,angry_high,6,921.1252,NA,NA,NA
36,angry_high,7,921.3743000000001,0.24879999999984648,left,correct
36,angry_high,9,921.9399000000001,NA,44,correct angry
36,angry_high,3,923.4409000000002,NA,NA,NA
37,sad_low,5,925.4581999999999,NA,NA,low
37,sad_low,11,926.6739999999998,NA,NA,NA
37,sad_low,12,926.8914000000001,0.21379999999976462,right,correct
37,sad_low,6,927.9073000000001,NA,NA,NA
37,sad_low,7,928.1239999999998,0.2162999999998192,right,correct
37,sad_low,9,928.7214000000001,NA,48,correct sad
37,sad_low,3,930.2230999999998,NA,NA,NA
38,angry_high,5,932.7464999999997,NA,NA,high
38,angry_high,11,933.9567,NA,NA,NA
38,angry_high,12,934.2692,0.3045000000000755,left,correct
38,angry_high,6,935.2859000000001,NA,NA,NA
38,angry_high,7,935.5891999999999,0.30299999999999727,left,correct
38,angry_high,9,936.1048000000001,NA,37,correct angry
38,angry_high,3,937.6059999999998,NA,NA,NA
39,sad_low,5,939.6263,NA,NA,low
39,sad_low,11,940.8510999999999,NA,NA,NA
39,sad_low,12,940.9902,0.13589999999999236,right,correct
39,sad_low,6,942.0056999999999,NA,NA,NA
39,sad_low,7,942.2380999999998,0.23210000000005948,right,correct
39,sad_low,9,942.8202,NA,46,correct sad
39,sad_low,3,944.3214999999998,NA,NA,NA
40,sad_low,5,947.3514000000001,NA,NA,low
40,sad_low,11,948.5705999999999,NA,NA,NA
40,sad_low,12,948.7015999999999,0.11920000000020536,right,correct
40,sad_low,6,949.7209999999998,NA,NA,NA
40,sad_low,7,949.9533,0.2319999999999709,right,correct
40,sad_low,9,950.5364000000002,NA,46,correct sad
40,sad_low,3,952.0374999999998,NA,NA,NA
41,angry_high,5,954.0554999999997,NA,NA,high
41,angry_high,11,955.2894000000001,NA,NA,NA
41,angry_high,12,955.3708,0.07829999999978554,left,correct
41,angry_high,6,956.3830999999999,NA,NA,NA
41,angry_high,7,956.7198000000001,0.3363999999999123,left,correct
41,angry_high,9,957.2022,NA,33,correct angry
41,angry_high,3,958.7036999999999,NA,NA,NA
42,sad_high,5,961.2075999999998,NA,NA,high
42,sad_high,11,962.4358000000001,NA,NA,NA
42,sad_high,12,962.7654999999997,0.3246000000001459,right,correct
42,sad_high,6,963.7863,NA,NA,NA
42,sad_high,7,964.0140999999999,0.22660000000018954,right,correct
42,sad_high,9,964.6002,NA,46,correct sad
42,sad_high,3,966.1015999999998,NA,NA,NA
43,angry_high,5,968.1064999999998,NA,NA,high
43,angry_high,11,969.3183,NA,NA,NA
43,angry_high,12,969.5023,0.18079999999974916,right,incorrect
43,angry_high,6,970.5147,NA,NA,NA
43,angry_high,7,970.8339000000001,0.3187999999997828,right,incorrect
43,angry_high,9,971.3307,NA,-50,wrong angry
43,angry_high,3,972.8347,NA,NA,NA
44,sad_high,5,975.3747,NA,NA,high
44,sad_high,11,976.5834999999997,NA,NA,NA
44,sad_high,12,977.1803,0.5935999999995829,left,incorrect
44,sad_high,6,978.1839000000001,NA,NA,NA
44,sad_high,7,978.4000999999998,0.2158999999999196,left,incorrect
44,sad_high,9,978.9970999999998,NA,-50,wrong sad
44,sad_high,3,980.4999000000001,NA,NA,NA
45,sad_low,5,982.5250999999998,NA,NA,low
45,sad_low,11,983.7328,NA,NA,NA
45,sad_low,12,984.1835999999998,0.4477999999998019,left,incorrect
45,sad_low,6,985.1959999999998,NA,NA,NA
45,sad_low,7,985.8163000000001,0.6197999999998274,right,correct
45,sad_low,9,986.0134999999998,NA,-3,correct sad
45,sad_low,3,987.5159000000001,NA,NA,NA
46,angry_high,5,990.5553,NA,NA,high
46,angry_high,11,991.7653,NA,NA,NA
46,angry_high,12,992.1456999999999,0.372899999999845,left,correct
46,angry_high,6,993.1654000000001,NA,NA,NA
46,angry_high,7,993.5322,0.3663000000003649,left,correct
46,angry_high,9,993.9795999999999,NA,29,correct angry
46,angry_high,3,995.4816999999999,NA,NA,NA
47,sad_low,5,998.0064999999997,NA,NA,low
47,sad_low,11,999.2138,NA,NA,NA
47,sad_low,12,999.5444000000001,0.3258000000002994,right,correct
47,sad_low,6,1000.5484000000001,NA,NA,NA
47,sad_low,7,1000.8978000000001,0.3490000000000464,right,correct
47,sad_low,9,1001.3624999999997,NA,31,correct sad
47,sad_low,3,1002.8643000000001,NA,NA,NA
48,angry_high,5,1005.8684000000002,NA,NA,high
48,angry_high,11,1007.0808000000001,NA,NA,NA
48,angry_high,12,1007.5984000000001,0.5144999999999982,left,correct
48,angry_high,6,1008.6090999999999,NA,NA,NA
48,angry_high,7,1008.8302,0.22080000000028122,left,correct
48,angry_high,9,1009.4143,NA,47,correct angry
48,angry_high,3,1010.9129000000001,NA,NA,NA
49,sad_low,5,1013.4316,NA,NA,low
49,sad_low,11,1014.6626,NA,NA,NA
49,sad_low,12,1014.9964999999999,0.33049999999980173,right,correct
49,sad_low,6,1016.0088000000002,NA,NA,NA
49,sad_low,7,1016.5826000000001,0.5723999999997886,right,correct
49,sad_low,9,1016.8264999999998,NA,3,correct sad
49,sad_low,3,1018.3294000000002,NA,NA,NA
50,angry_high,5,1021.3517,NA,NA,high
50,angry_high,11,1022.5614000000002,NA,NA,NA
50,angry_high,12,1022.6456,0.08090000000038344,left,correct
50,angry_high,6,1023.6619000000002,NA,NA,NA
50,angry_high,7,1023.8787000000001,0.21640000000002146,left,correct
50,angry_high,9,1024.4760999999999,NA,48,correct angry
50,angry_high,3,1025.9777,NA,NA,NA
51,sad_low,5,1027.9941,NA,NA,low
51,sad_low,11,1029.2116999999998,NA,NA,NA
51,sad_low,12,1029.3404999999998,0.12100000000009459,right,correct
51,sad_low,6,1030.3609999999996,NA,NA,NA
51,sad_low,7,1030.5104999999999,0.14910000000031687,right,correct
51,sad_low,9,1031.1730999999997,NA,56,correct sad
51,sad_low,3,1032.6773,NA,NA,NA
52,sad_low,5,1035.1953,NA,NA,low
52,sad_low,11,1036.4261999999999,NA,NA,NA
52,sad_low,12,1036.7724999999998,0.3354000000003907,right,correct
52,sad_low,6,1037.7929000000001,NA,NA,NA
52,sad_low,7,1038.1714999999997,0.3710000000000946,right,correct
52,sad_low,9,1038.6084,NA,28,correct sad
52,sad_low,3,1040.1094,NA,NA,NA
53,angry_high,5,1042.1143,NA,NA,high
53,angry_high,11,1043.3252,NA,NA,NA
53,angry_high,12,1043.7105999999999,0.38200000000006185,left,correct
53,angry_high,6,1044.7219000000002,NA,NA,NA
53,angry_high,7,1044.8256,0.1033999999997377,left,correct
53,angry_high,9,1045.5403000000001,NA,62,correct angry
53,angry_high,3,1047.0418,NA,NA,NA
54,sad_low,5,1050.0587,NA,NA,low
54,sad_low,11,1051.2740999999999,NA,NA,NA
54,sad_low,12,1051.6417,0.3643000000004122,right,correct
54,sad_low,6,1052.6579000000002,NA,NA,NA
54,sad_low,7,1052.8909,0.23269999999979518,right,correct
54,sad_low,9,1053.4723000000001,NA,46,correct sad
54,sad_low,3,1054.9738,NA,NA,NA
55,sad_low,5,1057.4778000000001,NA,NA,low
55,sad_low,11,1058.7067,NA,NA,NA
55,sad_low,12,1059.0034,0.2902000000001408,right,correct
55,sad_low,6,1060.0070999999998,NA,NA,NA
55,sad_low,7,1060.4234999999996,0.41599999999994,right,correct
55,sad_low,9,1060.8208,NA,23,correct sad
55,sad_low,3,1062.3229000000001,NA,NA,NA
56,angry_low,5,1065.3504999999998,NA,NA,low
56,angry_low,11,1066.5352,NA,NA,NA
56,angry_low,12,1066.8023,0.25649999999996,right,incorrect
56,angry_low,6,1067.8189999999997,NA,NA,NA
56,angry_low,7,1068.2676999999999,0.44020000000023174,right,incorrect
56,angry_low,9,1068.6354000000001,NA,-50,wrong angry
56,angry_low,3,1070.1514999999997,NA,NA,NA
57,sad_low,5,1072.1713,NA,NA,low
57,sad_low,11,1073.3843,NA,NA,NA
57,sad_low,12,1073.7848000000001,0.393100000000004,left,incorrect
57,sad_low,6,1074.8014,NA,NA,NA
57,sad_low,7,1075.1172,0.30779999999981555,left,incorrect
57,sad_low,9,1075.6178,NA,-50,wrong sad
57,sad_low,3,1077.1338,NA,NA,NA
58,angry_high,5,1079.1542,NA,NA,high
58,angry_high,11,1080.3499000000002,NA,NA,NA
58,angry_high,12,1080.7839999999997,0.4273000000002867,left,correct
58,angry_high,6,1081.8004,NA,NA,NA
58,angry_high,7,1082.1990999999998,0.39429999999993015,left,correct
58,angry_high,9,1082.6184999999998,NA,25,correct angry
58,angry_high,3,1084.1329999999998,NA,NA,NA
59,sad_low,5,1086.6569000000002,NA,NA,low
59,sad_low,11,1087.8656999999998,NA,NA,NA
59,sad_low,12,1088.1994999999997,0.32029999999986103,right,correct
59,sad_low,6,1089.2161999999998,NA,NA,NA
59,sad_low,7,1089.5319000000002,0.30370000000039,right,correct
59,sad_low,9,1090.0343,NA,36,correct sad
59,sad_low,3,1091.5487,NA,NA,NA
60,angry_low,5,1093.5713,NA,NA,low
60,angry_low,11,1094.7982,NA,NA,NA
60,angry_low,12,1094.9154999999998,0.10440000000039618,right,incorrect
60,angry_low,6,1095.9322,NA,NA,NA
60,angry_low,7,1096.4478000000001,0.5132999999998447,left,correct
60,angry_low,9,1096.7500999999997,NA,11,correct angry
60,angry_low,3,1098.2644999999998,NA,NA,NA
61,sad_high,5,1100.7892,NA,NA,high
61,sad_high,11,1101.9838,NA,NA,NA
61,sad_high,12,1102.1187,0.13170000000013715,left,incorrect
61,sad_high,6,1103.1307,NA,NA,NA
61,sad_high,7,1103.4519999999998,0.3209999999999127,left,incorrect
61,sad_high,9,1103.9478000000001,NA,-50,wrong sad
61,sad_high,3,1105.4506999999999,NA,NA,NA
62,angry_low,5,1107.9858,NA,NA,low
62,angry_low,11,1109.1834000000001,NA,NA,NA
62,angry_low,12,1110.1339999999998,0.9474999999999909,right,incorrect
62,angry_low,6,1111.1467,NA,NA,NA
62,angry_low,7,1111.4122,0.2596000000000913,right,incorrect
62,angry_low,9,1111.9669999999999,NA,-50,wrong angry
62,angry_low,3,1113.4789999999998,NA,NA,NA
63,angry_low,5,1115.4994999999997,NA,NA,low
63,angry_low,11,1116.6999,NA,NA,NA
63,angry_low,12,1117.8459,1.13570000000027,right,incorrect
63,angry_low,6,1118.8624000000002,NA,NA,NA
63,angry_low,7,1119.3153,0.45249999999987267,right,incorrect
63,angry_low,9,1119.6664,NA,-50,wrong angry
63,angry_low,3,1121.1819999999998,NA,NA,NA
64,sad_high,5,1124.2004000000002,NA,NA,high
64,sad_high,11,1125.3985999999998,NA,NA,NA
64,sad_high,12,1126.1655999999998,0.7641999999998461,right,correct
64,sad_high,6,1127.1775999999998,NA,NA,NA
64,sad_high,7,1127.4099999999999,0.2252000000003136,right,correct
64,sad_high,9,1127.9802,NA,46,correct sad
64,sad_high,3,1129.4809,NA,NA,NA
65,angry_low,5,1132.5017,NA,NA,low
65,angry_low,11,1133.7138,NA,NA,NA
65,angry_low,12,1133.8154000000002,0.09850000000005821,left,correct
65,angry_low,6,1134.8304999999998,NA,NA,NA
65,angry_low,7,1135.0589000000002,0.22540000000003602,left,correct
65,angry_low,9,1135.6449999999998,NA,46,correct angry
65,angry_low,3,1137.1464999999998,NA,NA,NA
66,sad_high,5,1140.1671,NA,NA,high
66,sad_high,11,1141.3959000000002,NA,NA,NA
66,sad_high,12,1141.7815999999998,0.3817999999998847,right,correct
66,sad_high,6,1142.7924,NA,NA,NA
66,sad_high,7,1143.0958,0.3030999999996311,right,correct
66,sad_high,9,1143.6107,NA,37,correct sad
66,sad_high,3,1145.1124999999997,NA,NA,NA
67,sad_high,5,1148.1354999999999,NA,NA,high
67,sad_high,11,1149.3410999999999,NA,NA,NA
67,sad_high,12,1149.6299999999997,0.28559999999993124,right,correct
67,sad_high,6,1150.6413,NA,NA,NA
67,sad_high,7,1150.8947,0.25310000000013133,right,correct
67,sad_high,9,1151.4600999999998,NA,43,correct sad
67,sad_high,3,1152.9614000000001,NA,NA,NA
68,angry_low,5,1154.9789999999998,NA,NA,low
68,angry_low,11,1156.2109999999998,NA,NA,NA
68,angry_low,12,1156.3449999999998,0.13040000000000873,left,correct
68,angry_low,6,1157.3574,NA,NA,NA
68,angry_low,7,1157.8608,0.5030999999996766,left,correct
68,angry_low,9,1158.1754999999998,NA,12,correct angry
68,angry_low,3,1159.6774,NA,NA,NA
69,sad_high,5,1161.6944,NA,NA,high
69,sad_high,11,1162.9269000000002,NA,NA,NA
69,sad_high,12,1163.0112,0.08110000000010587,right,correct
69,sad_high,6,1164.0231999999999,NA,NA,NA
69,sad_high,7,1164.3099999999997,0.28650000000016007,right,correct
69,sad_high,9,1164.8411999999998,NA,39,correct sad
69,sad_high,3,1166.3430999999998,NA,NA,NA
70,sad_high,5,1168.8757,NA,NA,high
70,sad_high,11,1170.0719000000001,NA,NA,NA
70,sad_high,12,1170.1559000000002,0.0706000000000131,right,correct
70,sad_high,6,1171.1724999999997,NA,NA,NA
70,sad_high,7,1171.5214999999998,0.34050000000002,left,incorrect
70,sad_high,9,1171.9889999999998,NA,-50,wrong sad
70,sad_high,3,1173.5048,NA,NA,NA
71,angry_high,5,1176.0282,NA,NA,high
71,angry_high,11,1177.2376,NA,NA,NA
71,angry_high,12,1177.3884999999998,0.13859999999999673,right,incorrect
71,angry_high,6,1178.4049999999997,NA,NA,NA
71,angry_high,7,1178.7204999999997,0.30549999999993815,right,incorrect
71,angry_high,9,1179.2206999999999,NA,-50,wrong angry
71,angry_high,3,1180.7370999999998,NA,NA,NA
72,sad_high,5,1183.7604999999999,NA,NA,high
72,sad_high,11,1184.9699,NA,NA,NA
72,sad_high,12,1185.3198,0.3369000000000142,right,correct
72,sad_high,6,1186.3373000000001,NA,NA,NA
72,sad_high,7,1186.7357,0.39299999999980173,right,correct
72,sad_high,9,1187.1549000000002,NA,25,correct sad
72,sad_high,3,1188.6694999999997,NA,NA,NA
73,angry_low,5,1190.6734999999996,NA,NA,low
73,angry_low,11,1191.8859000000002,NA,NA,NA
73,angry_low,12,1192.3364999999997,0.4416999999998552,left,correct
73,angry_low,6,1193.3529,NA,NA,NA
73,angry_low,7,1193.6684999999998,0.3070999999997639,left,correct
73,angry_low,9,1194.1709999999998,NA,36,correct angry
73,angry_low,3,1195.6854,NA,NA,NA
74,angry_low,5,1198.1900999999998,NA,NA,low
74,angry_low,11,1199.4016,NA,NA,NA
74,angry_low,12,1199.8354000000002,0.42130000000042855,left,correct
74,angry_low,6,1200.8520999999998,NA,NA,NA
74,angry_low,7,1201.1175999999998,0.25540000000000873,left,correct
74,angry_low,9,1201.6700999999998,NA,42,correct angry
74,angry_low,3,1203.1844999999998,NA,NA,NA
75,sad_low,5,1205.1900999999998,NA,NA,low
75,sad_low,11,1206.4171999999999,NA,NA,NA
75,sad_low,12,1206.8178,0.39630000000011023,left,incorrect
75,sad_low,6,1207.8346,NA,NA,NA
75,sad_low,7,1208.2329000000002,0.3933999999999287,left,incorrect
75,sad_low,9,1208.6504000000002,NA,-50,wrong sad
75,sad_low,3,1210.1668,NA,NA,NA
76,angry_low,5,1213.1834999999999,NA,NA,low
76,angry_low,11,1214.3829999999998,NA,NA,NA
76,angry_low,12,1214.7504000000001,0.354200000000219,right,incorrect
76,angry_low,6,1215.7668,NA,NA,NA
76,angry_low,7,1216.0489999999998,0.27029999999967913,right,incorrect
76,angry_low,9,1216.5829999999999,NA,-50,wrong angry
76,angry_low,3,1218.0991999999999,NA,NA,NA
77,sad_high,5,1220.6213,NA,NA,high
77,sad_high,11,1221.8318,NA,NA,NA
77,sad_high,12,1222.2662,0.4282999999998083,left,incorrect
77,sad_high,6,1223.2824999999998,NA,NA,NA
77,sad_high,7,1223.6145999999999,0.321400000000267,left,incorrect
77,sad_high,9,1224.0987,NA,-50,wrong sad
77,sad_high,3,1225.6148,NA,NA,NA
78,angry_low,5,1227.6362,NA,NA,low
78,angry_low,11,1228.8309999999997,NA,NA,NA
78,angry_low,12,1229.2151999999999,0.3708000000001448,left,correct
78,angry_low,6,1230.2313000000001,NA,NA,NA
78,angry_low,7,1230.6138,0.37669999999957327,right,incorrect
78,angry_low,9,1231.0479,NA,-50,wrong angry
78,angry_low,3,1232.5638000000001,NA,NA,NA
79,sad_high,5,1235.0901999999999,NA,NA,high
79,sad_high,11,1236.3011999999999,NA,NA,NA
79,sad_high,12,1236.9802,0.6747000000002572,left,incorrect
79,sad_high,6,1237.9970999999998,NA,NA,NA
79,sad_high,7,1238.7339000000002,0.7364000000000033,right,correct
79,sad_high,9,1238.8133,NA,-17,correct sad
79,sad_high,3,1240.3162,NA,NA,NA
80,angry_low,5,1243.3685999999998,NA,NA,low
80,angry_low,11,1244.5789999999997,NA,NA,NA
80,angry_low,12,1244.9804000000001,0.3980999999996584,left,correct
80,angry_low,6,1245.9964000000002,NA,NA,NA
80,angry_low,7,1246.3118,0.31229999999982283,left,correct
80,angry_low,9,1246.8139999999999,NA,36,correct angry
80,angry_low,3,1248.3284999999998,NA,NA,NA
81,angry_high,5,1250.3315999999998,NA,NA,high
81,angry_high,11,1251.5449,NA,NA,NA
81,angry_high,12,1251.8123,0.2560000000000855,right,incorrect
81,angry_high,6,1252.8288,NA,NA,NA
81,angry_high,7,1253.0438000000001,0.21419999999966421,right,incorrect
81,angry_high,9,1253.6449999999998,NA,-50,wrong angry
81,angry_high,3,1255.1609,NA,NA,NA
82,sad_high,5,1257.6804999999997,NA,NA,high
82,sad_high,11,1258.8934000000002,NA,NA,NA
82,sad_high,12,1259.9444999999998,1.04529999999977,right,correct
82,sad_high,6,1260.9606999999999,NA,NA,NA
82,sad_high,7,1261.3764999999999,0.40479999999979555,right,correct
82,sad_high,9,1261.7790999999997,NA,23,correct sad
82,sad_high,3,1263.2934,NA,NA,NA
83,angry_low,5,1265.2998,NA,NA,low
83,angry_low,11,1266.5099000000002,NA,NA,NA
83,angry_low,12,1266.8604999999998,0.33779999999978827,left,correct
83,angry_low,6,1267.8768,NA,NA,NA
83,angry_low,7,1268.3754000000001,0.4981000000000222,left,correct
83,angry_low,9,1268.6947,NA,13,correct angry
83,angry_low,3,1270.2092,NA,NA,NA
84,angry_low,5,1273.2364999999998,NA,NA,low
84,angry_low,11,1274.4454999999998,NA,NA,NA
84,angry_low,12,1275.6799999999998,1.2312000000001717,left,correct
84,angry_low,6,1276.6920999999998,NA,NA,NA
84,angry_low,7,1277.0449999999998,0.3526000000001659,left,correct
84,angry_low,9,1277.5144999999998,NA,31,correct angry
84,angry_low,3,1279.0280999999998,NA,NA,NA
85,angry_low,5,1281.5294000000001,NA,NA,low
85,angry_low,11,1282.7441999999999,NA,NA,NA
85,angry_low,12,1283.0785999999998,0.33130000000028303,left,correct
85,angry_low,6,1284.0950999999998,NA,NA,NA
85,angry_low,7,1284.4614000000001,0.3658999999997832,left,correct
85,angry_low,9,1284.9090999999999,NA,29,correct angry
85,angry_low,3,1286.4100999999998,NA,NA,NA
86,sad_high,5,1289.4554999999998,NA,NA,high
86,sad_high,11,1290.6564,NA,NA,NA
86,sad_high,12,1291.0740999999998,0.41079999999988104,right,correct
86,sad_high,6,1292.0904999999998,NA,NA,NA
86,sad_high,7,1292.3227,0.22900000000004184,right,correct
86,sad_high,9,1292.9078,NA,46,correct sad
86,sad_high,3,1294.4226999999998,NA,NA,NA
87,angry_low,5,1296.4270999999999,NA,NA,low
87,angry_low,11,1297.6563,NA,NA,NA
87,angry_low,12,1297.8895999999997,0.22510000000011132,left,correct
87,angry_low,6,1298.9064999999998,NA,NA,NA
87,angry_low,7,1299.1213,0.21249999999986358,left,correct
87,angry_low,9,1299.7239999999997,NA,48,correct angry
87,angry_low,3,1301.2386999999999,NA,NA,NA
88,sad_high,5,1303.7433,NA,NA,high
88,sad_high,11,1304.9547,NA,NA,NA
88,sad_high,12,1305.0557,0.08769999999981337,right,correct
88,sad_high,6,1306.0719000000001,NA,NA,NA
88,sad_high,7,1306.4040999999997,0.3212999999998374,right,correct
88,sad_high,9,1306.8899999999999,NA,33,correct sad
88,sad_high,3,1308.4043000000001,NA,NA,NA
89,sad_high,5,1310.4103,NA,NA,high
89,sad_high,11,1311.6372,NA,NA,NA
89,sad_high,12,1312.5708,0.9295999999997093,left,incorrect
89,sad_high,6,1313.5878,NA,NA,NA
89,sad_high,7,1313.8033,0.21210000000019136,left,incorrect
89,sad_high,9,1314.4036999999998,NA,-50,wrong sad
89,sad_high,3,1315.9193,NA,NA,NA
90,sad_high,5,1318.9504999999997,NA,NA,high
90,sad_high,11,1320.1697,NA,NA,NA
90,sad_high,12,1320.5031,0.32070000000021537,right,correct
90,sad_high,6,1321.5198,NA,NA,NA
90,sad_high,7,1321.8352,0.3105000000000473,right,correct
90,sad_high,9,1322.3379999999997,NA,36,correct sad
90,sad_high,3,1323.8519999999999,NA,NA,NA
91,sad_low,5,1326.3578,NA,NA,low
91,sad_low,11,1327.5689000000002,NA,NA,NA
91,sad_low,12,1328.0693,0.48959999999965476,left,incorrect
91,sad_low,6,1329.0856999999999,NA,NA,NA
91,sad_low,7,1329.4010999999998,0.3063999999999396,left,incorrect
91,sad_low,9,1329.9017,NA,-50,wrong sad
91,sad_low,3,1331.4180999999999,NA,NA,NA
92,angry_high,5,1333.4384999999997,NA,NA,high
92,angry_high,11,1334.6507,NA,NA,NA
92,angry_high,12,1336.0349,1.3753000000003794,left,correct
92,angry_high,6,1337.0511999999999,NA,NA,NA
92,angry_high,7,1337.4506,0.3868999999999687,left,correct
92,angry_high,9,1337.8689999999997,NA,25,correct angry
92,angry_high,3,1339.3836,NA,NA,NA
93,sad_high,5,1341.8899000000001,NA,NA,high
93,sad_high,11,1343.1164999999999,NA,NA,NA
93,sad_high,12,1343.4342,0.30869999999958964,left,incorrect
93,sad_high,6,1344.4504000000002,NA,NA,NA
93,sad_high,7,1344.6824999999997,0.22839999999996508,left,incorrect
93,sad_high,9,1345.2664999999997,NA,-50,wrong sad
93,sad_high,3,1346.7825999999998,NA,NA,NA
94,angry_high,5,1349.8079000000002,NA,NA,high
94,angry_high,11,1351.0195999999999,NA,NA,NA
94,angry_high,12,1351.2995999999998,0.26739999999995234,left,correct
94,angry_high,6,1352.3194,NA,NA,NA
94,angry_high,7,1352.9192,0.599400000000287,left,correct
94,angry_high,9,1353.1346999999998,NA,0,correct angry
94,angry_high,3,1354.6354000000001,NA,NA,NA
95,sad_low,5,1356.6522,NA,NA,low
95,sad_low,11,1357.8644999999997,NA,NA,NA
95,sad_low,12,1358.2032,0.3351000000000113,right,correct
95,sad_low,6,1359.2190999999998,NA,NA,NA
95,sad_low,7,1359.6181,0.3987000000001899,right,correct
95,sad_low,9,1360.0324,NA,25,correct sad
95,sad_low,3,1361.5349,NA,NA,NA
96,angry_low,5,1364.0534999999998,NA,NA,low
96,angry_low,11,1365.2676,NA,NA,NA
96,angry_low,12,1365.5511999999999,0.28019999999969514,right,incorrect
96,angry_low,6,1366.5647,NA,NA,NA
96,angry_low,7,1366.6019000000001,0.03579999999988104,right,incorrect
96,angry_low,9,1367.3804000000002,NA,-50,wrong angry
96,angry_low,3,1368.8839,NA,NA,NA
97,angry_high,5,1371.9067,NA,NA,high
97,angry_high,11,1373.1165999999998,NA,NA,NA
97,angry_high,12,1373.6509999999998,0.531400000000076,left,correct
97,angry_high,6,1374.6668,NA,NA,NA
97,angry_high,7,1375.0952,0.42460000000005493,left,correct
97,angry_high,9,1375.4805999999999,NA,21,correct angry
97,angry_high,3,1376.9838,NA,NA,NA
98,angry_low,5,1379.5162,NA,NA,low
98,angry_low,11,1380.7151999999999,NA,NA,NA
98,angry_low,12,1381.0501,0.3318000000003849,right,incorrect
98,angry_low,6,1382.0659999999998,NA,NA,NA
98,angry_low,7,1382.3826,0.316300000000183,right,incorrect
98,angry_low,9,1382.8783,NA,-50,wrong angry
98,angry_low,3,1384.3816,NA,NA,NA
99,sad_low,5,1386.4164,NA,NA,low
99,sad_low,11,1387.5978,NA,NA,NA
99,sad_low,12,1387.9659999999997,0.365099999999984,right,correct
99,sad_low,6,1388.9814000000001,NA,NA,NA
99,sad_low,7,1389.3933,0.403599999999642,left,incorrect
99,sad_low,9,1389.7940999999998,NA,-50,wrong sad
99,sad_low,3,1391.2978,NA,NA,NA
100,sad_high,5,1393.3489999999997,NA,NA,high
100,sad_high,11,1394.5433,NA,NA,NA
100,sad_high,12,1394.6609,0.10529999999971551,right,correct
100,sad_high,6,1395.6769000000002,NA,NA,NA
100,sad_high,7,1396.0762,0.38829999999984466,right,correct
100,sad_high,9,1396.4954999999998,NA,25,correct sad
100,sad_high,3,1398.0090999999998,NA,NA,NA
101,angry_low,5,1400.5149000000001,NA,NA,low
101,angry_low,11,1401.7422,NA,NA,NA
101,angry_low,12,1402.0427,0.28739999999993415,left,correct
101,angry_low,6,1403.0592,NA,NA,NA
101,angry_low,7,1403.6079000000002,0.548200000000179,left,correct
101,angry_low,9,1403.8773,NA,6,correct angry
101,angry_low,3,1405.3917,NA,NA,NA
102,sad_high,5,1408.3968,NA,NA,high
102,sad_high,11,1409.6244999999997,NA,NA,NA
102,sad_high,12,1410.0588,0.42210000000000036,left,incorrect
102,sad_high,6,1411.0740999999998,NA,NA,NA
102,sad_high,7,1411.7403,0.6577000000002045,right,correct
102,sad_high,9,1411.8761,NA,-8,correct sad
102,sad_high,3,1413.3909999999998,NA,NA,NA
103,sad_high,5,1415.8961,NA,NA,high
103,sad_high,11,1417.1238,NA,NA,NA
103,sad_high,12,1417.3908000000001,0.2635999999999967,right,correct
103,sad_high,6,1418.4075999999998,NA,NA,NA
103,sad_high,7,1418.7073,0.2881000000002132,right,correct
103,sad_high,9,1419.2239000000002,NA,38,correct sad
103,sad_high,3,1420.7392,NA,NA,NA
104,angry_low,5,1423.7580999999998,NA,NA,low
104,angry_low,11,1424.9725999999998,NA,NA,NA
104,angry_low,12,1425.8230999999998,0.8369000000002416,left,correct
104,angry_low,6,1426.8397,NA,NA,NA
104,angry_low,7,1427.1219999999998,0.2703999999998814,left,correct
104,angry_low,9,1427.6571999999999,NA,40,correct angry
104,angry_low,3,1429.1719999999998,NA,NA,NA
105,sad_high,5,1431.6769999999997,NA,NA,high
105,sad_high,11,1432.9049000000002,NA,NA,NA
105,sad_high,12,1433.5221999999999,0.6053000000001703,right,correct
105,sad_high,6,1434.5389999999998,NA,NA,NA
105,sad_high,7,1434.9387,0.3874999999998181,right,correct
105,sad_high,9,1435.3549999999998,NA,25,correct sad
105,sad_high,3,1436.8544999999997,NA,NA,NA
106,angry_low,5,1439.8979999999997,NA,NA,low
106,angry_low,11,1441.0917,NA,NA,NA
106,angry_low,12,1441.6253000000002,0.5305000000000746,left,correct
106,angry_low,6,1442.6375999999998,NA,NA,NA
106,angry_low,7,1443.1074,0.4695000000001528,left,correct
106,angry_low,9,1443.4564999999998,NA,16,correct angry
106,angry_low,3,1444.9577,NA,NA,NA
107,sad_high,5,1447.4955999999997,NA,NA,high
107,sad_high,11,1448.6906999999999,NA,NA,NA
107,sad_high,12,1449.3873,0.6812999999997373,left,incorrect
107,sad_high,6,1450.4034000000001,NA,NA,NA
107,sad_high,7,1450.7730999999999,0.36950000000001637,left,incorrect
107,sad_high,9,1451.2193,NA,-50,wrong sad
107,sad_high,3,1452.7228,NA,NA,NA
108,angry_low,5,1454.7609000000002,NA,NA,low
108,angry_low,11,1455.9559999999997,NA,NA,NA
108,angry_low,12,1456.6524000000002,0.6810999999995602,right,incorrect
108,angry_low,6,1457.6689000000001,NA,NA,NA
108,angry_low,7,1458.1224000000002,0.45309999999972206,right,incorrect
108,angry_low,9,1458.4858,NA,-50,wrong angry
108,angry_low,3,1459.9889,NA,NA,NA
109,angry_low,5,1463.0223,NA,NA,low
109,angry_low,11,1464.2215999999999,NA,NA,NA
109,angry_low,12,1464.8346999999999,0.6026000000001659,right,incorrect
109,angry_low,6,1465.8383000000001,NA,NA,NA
109,angry_low,7,1466.4165999999998,0.5735999999999422,left,correct
109,angry_low,9,1466.6519999999998,NA,3,correct angry
109,angry_low,3,1468.1543000000001,NA,NA,NA
110,sad_high,5,1470.1849000000002,NA,NA,high
110,sad_high,11,1471.3834999999997,NA,NA,NA
110,sad_high,12,1472.0004999999996,0.60349999999994,left,incorrect
110,sad_high,6,1473.0174999999997,NA,NA,NA
110,sad_high,7,1473.4161,0.39490000000046166,left,incorrect
110,sad_high,9,1473.8332,NA,-50,wrong sad
110,sad_high,3,1475.3497,NA,NA,NA
111,angry_high,5,1478.3701999999998,NA,NA,high
111,angry_high,11,1479.5824000000002,NA,NA,NA
111,angry_high,12,1480.0829999999999,0.4939999999999145,left,correct
111,angry_high,6,1481.0993,NA,NA,NA
111,angry_high,7,1481.6313,0.5294999999998709,left,correct
111,angry_high,9,1481.9171999999999,NA,8,correct angry
111,angry_high,3,1483.4314999999997,NA,NA,NA
112,sad_high,5,1485.9368,NA,NA,high
112,sad_high,11,1487.1648,NA,NA,NA
112,sad_high,12,1487.6655999999998,0.4922999999998865,left,incorrect
112,sad_high,6,1488.6819,NA,NA,NA
112,sad_high,7,1489.1136999999999,0.42200000000002547,left,incorrect
112,sad_high,9,1489.4983,NA,-50,wrong sad
112,sad_high,3,1491.0141999999998,NA,NA,NA
113,angry_low,5,1493.0388,NA,NA,low
113,angry_low,11,1494.2470999999998,NA,NA,NA
113,angry_low,12,1494.7306999999998,0.47939999999994143,right,incorrect
113,angry_low,6,1495.7478,NA,NA,NA
113,angry_low,7,1496.0797,0.3212999999998374,right,incorrect
113,angry_low,9,1496.5638000000001,NA,-50,wrong angry
113,angry_low,3,1498.0799999999997,NA,NA,NA
114,sad_low,5,1500.1072,NA,NA,low
114,sad_low,11,1501.2997,NA,NA,NA
114,sad_low,12,1501.8011,0.49820000000022446,right,correct
114,sad_low,6,1502.8139,NA,NA,NA
114,sad_low,7,1503.2834,0.46910000000002583,left,incorrect
114,sad_low,9,1503.6293,NA,-50,wrong sad
114,sad_low,3,1505.1326,NA,NA,NA
115,sad_high,5,1508.1699999999998,NA,NA,high
115,sad_high,11,1509.3499999999997,NA,NA,NA
115,sad_high,12,1510.0619999999997,0.7091999999997824,left,incorrect
115,sad_high,6,1511.0798,NA,NA,NA
115,sad_high,7,1511.4779,0.3852999999999156,left,incorrect
115,sad_high,9,1511.8955999999998,NA,-50,wrong sad
115,sad_high,3,1513.3991999999998,NA,NA,NA
116,angry_low,5,1515.9330999999997,NA,NA,low
116,angry_low,11,1517.1314999999997,NA,NA,NA
116,angry_low,12,1517.6329999999998,0.4984999999999218,left,correct
116,angry_low,6,1518.6485999999998,NA,NA,NA
116,angry_low,7,1518.9144000000001,0.26539999999999964,left,correct
116,angry_low,9,1519.4622,NA,42,correct angry
116,angry_low,3,1520.9641,NA,NA,NA
117,sad_low,5,1523.9984000000002,NA,NA,low
117,sad_low,11,1525.2132,NA,NA,NA
117,sad_low,12,1525.5309000000002,0.314600000000155,left,incorrect
117,sad_low,6,1526.5434999999998,NA,NA,NA
117,sad_low,7,1526.7754000000002,0.22470000000021173,left,incorrect
117,sad_low,9,1527.3598,NA,-50,wrong sad
117,sad_low,3,1528.8672,NA,NA,NA
118,angry_low,5,1531.4109999999998,NA,NA,low
118,angry_low,11,1532.6088,NA,NA,NA
118,angry_low,12,1533.0266,0.40759999999954744,left,correct
118,angry_low,6,1534.0428,NA,NA,NA
118,angry_low,7,1534.6093,0.5571000000002186,left,correct
118,angry_low,9,1534.8603,NA,4,correct angry
118,angry_low,3,1536.3748,NA,NA,NA
119,sad_high,5,1538.3809999999999,NA,NA,high
119,sad_high,11,1539.5913,NA,NA,NA
119,sad_high,12,1540.0088,0.404700000000048,right,correct
119,sad_high,6,1541.0235999999998,NA,NA,NA
119,sad_high,7,1541.4578000000001,0.43010000000026594,right,correct
119,sad_high,9,1541.8259999999998,NA,21,correct sad
119,sad_high,3,1543.3405999999998,NA,NA,NA
120,angry_low,5,1545.8929,NA,NA,low
120,angry_low,11,1547.1072,NA,NA,NA
120,angry_low,12,1547.3908000000001,0.2699999999999818,left,correct
120,angry_low,6,1548.4075999999998,NA,NA,NA
120,angry_low,7,1548.7731999999999,0.3538000000003194,right,incorrect
120,angry_low,9,1549.2238,NA,-50,wrong angry
120,angry_low,3,1550.7396999999999,NA,NA,NA
121,sad_low,5,1553.7667,NA,NA,low
121,sad_low,11,1554.9599999999998,NA,NA,NA
121,sad_low,12,1556.2280999999998,1.264299999999821,right,correct
121,sad_low,6,1557.2394999999997,NA,NA,NA
121,sad_low,7,1557.5594999999998,0.319700000000239,right,correct
121,sad_low,9,1558.0614,NA,35,correct sad
121,sad_low,3,1559.5759999999998,NA,NA,NA
122,angry_high,5,1561.5803,NA,NA,high
122,angry_high,11,1562.8098,NA,NA,NA
122,angry_high,12,1563.1050999999998,0.285200000000259,left,correct
122,angry_high,6,1564.1257,NA,NA,NA
122,angry_high,7,1564.3705999999997,0.24099999999998545,left,correct
122,angry_high,9,1564.9399999999998,NA,44,correct angry
122,angry_high,3,1566.4412,NA,NA,NA
123,angry_low,5,1569.4629000000002,NA,NA,low
123,angry_low,11,1570.6749000000002,NA,NA,NA
123,angry_low,12,1570.7584000000002,0.08010000000012951,right,incorrect
123,angry_low,6,1571.7708,NA,NA,NA
123,angry_low,7,1572.0449999999998,0.27329999999983556,right,incorrect
123,angry_low,9,1572.5875999999998,NA,-50,wrong angry
123,angry_low,3,1574.0911999999998,NA,NA,NA
124,sad_high,5,1576.6167,NA,NA,high
124,sad_high,11,1577.8198,NA,NA,NA
124,sad_high,12,1577.9538,0.12160000000017135,right,correct
124,sad_high,6,1578.9704000000002,NA,NA,NA
124,sad_high,7,1579.2854999999997,0.3126999999997224,right,correct
124,sad_high,9,1579.7888,NA,36,correct sad
124,sad_high,3,1581.3024999999998,NA,NA,NA
125,angry_low,5,1584.3259,NA,NA,low
125,angry_low,11,1585.5354999999997,NA,NA,NA
125,angry_low,12,1585.8197,0.27100000000018554,right,incorrect
125,angry_low,6,1586.8356999999999,NA,NA,NA
125,angry_low,7,1587.1344999999997,0.29349999999999454,left,correct
125,angry_low,9,1587.6374,NA,38,correct angry
125,angry_low,3,1589.1516,NA,NA,NA
126,sad_high,5,1591.6557,NA,NA,high
126,sad_high,11,1592.8677,NA,NA,NA
126,sad_high,12,1593.0687,0.19499999999993634,right,correct
126,sad_high,6,1594.0849999999998,NA,NA,NA
126,sad_high,7,1594.5838,0.49270000000024083,left,incorrect
126,sad_high,9,1594.9010999999998,NA,-50,wrong sad
126,sad_high,3,1596.4171999999999,NA,NA,NA
127,sad_high,5,1599.4389999999999,NA,NA,high
127,sad_high,11,1600.6336,NA,NA,NA
127,sad_high,12,1600.9843,0.3373999999998887,right,correct
127,sad_high,6,1602.0011,NA,NA,NA
127,sad_high,7,1602.1662,0.1595999999999549,right,correct
127,sad_high,9,1602.8188,NA,54,correct sad
127,sad_high,3,1604.3329999999999,NA,NA,NA
128,angry_low,5,1606.3373000000001,NA,NA,low
128,angry_low,11,1607.5659,NA,NA,NA
128,angry_low,12,1607.7663,0.1871000000001004,left,correct
128,angry_low,6,1608.7833,NA,NA,NA
128,angry_low,7,1609.1484999999998,0.3630000000000564,right,incorrect
128,angry_low,9,1609.5994,NA,-50,wrong angry
128,angry_low,3,1611.1155999999999,NA,NA,NA
129,angry_high,5,1614.1434999999997,NA,NA,high
129,angry_high,11,1615.3353,NA,NA,NA
129,angry_high,12,1615.8530999999998,0.5147000000001754,left,correct
129,angry_high,6,1616.8689999999997,NA,NA,NA
129,angry_high,7,1617.3523,0.4830000000001746,left,correct
129,angry_high,9,1617.6841,NA,15,correct angry
129,angry_high,3,1619.1854,NA,NA,NA
130,angry_low,5,1621.7374000000002,NA,NA,low
130,angry_low,11,1622.9474000000002,NA,NA,NA
130,angry_low,12,1623.0979000000002,0.1369999999999436,right,incorrect
130,angry_low,6,1624.1145999999999,NA,NA,NA
130,angry_low,7,1624.3630999999998,0.24789999999984502,right,incorrect
130,angry_low,9,1624.9306,NA,-50,wrong angry
130,angry_low,3,1626.4467,NA,NA,NA
131,sad_high,5,1628.4710999999998,NA,NA,high
131,sad_high,11,1629.6844,NA,NA,NA
131,sad_high,12,1629.8017,0.11439999999993233,left,incorrect
131,sad_high,6,1630.8143,NA,NA,NA
131,sad_high,7,1631.1169999999997,0.3022999999998319,left,incorrect
131,sad_high,9,1631.6304999999998,NA,-50,wrong sad
131,sad_high,3,1633.1333,NA,NA,NA
132,sad_high,5,1635.6683,NA,NA,high
132,sad_high,11,1636.8669000000002,NA,NA,NA
132,sad_high,12,1637.1961999999999,0.32150000000001455,left,incorrect
132,sad_high,6,1638.2161999999998,NA,NA,NA
132,sad_high,7,1638.5499000000002,0.33339999999998327,left,incorrect
132,sad_high,9,1639.0285999999999,NA,-50,wrong sad
132,sad_high,3,1640.5315999999998,NA,NA,NA
133,angry_low,5,1643.5568,NA,NA,low
133,angry_low,11,1644.7482,NA,NA,NA
133,angry_low,12,1645.0283,0.2722000000001117,left,correct
133,angry_low,6,1646.0319000000002,NA,NA,NA
133,angry_low,7,1646.4814999999999,0.44930000000044856,right,incorrect
133,angry_low,9,1646.8446,NA,-50,wrong angry
133,angry_low,3,1648.3474,NA,NA,NA
134,sad_high,5,1651.3851,NA,NA,high
134,sad_high,11,1652.5973000000001,NA,NA,NA
134,sad_high,12,1652.9153000000001,0.3145000000001801,left,incorrect
134,sad_high,6,1653.9270999999999,NA,NA,NA
134,sad_high,7,1654.5470999999998,0.6198000000001684,left,incorrect
134,sad_high,9,1654.7434,NA,-50,wrong sad
134,sad_high,3,1656.2474999999997,NA,NA,NA
135,angry_low,5,1658.7884999999997,NA,NA,low
135,angry_low,11,1659.9800999999998,NA,NA,NA
135,angry_low,12,1660.1642,0.18110000000001492,right,incorrect
135,angry_low,6,1661.1763,NA,NA,NA
135,angry_low,7,1661.5803,0.40360000000009677,right,incorrect
135,angry_low,9,1661.9927,NA,-50,wrong angry
135,angry_low,3,1663.5129999999997,NA,NA,NA
136,sad_low,5,1665.5389000000002,NA,NA,low
136,sad_low,11,1666.7414,NA,NA,NA
136,sad_low,12,1667.4424000000001,0.6905000000001564,left,incorrect
136,sad_low,6,1668.4589999999998,NA,NA,NA
136,sad_low,7,1668.6741,0.20499999999992724,left,incorrect
136,sad_low,9,1669.2752,NA,-50,wrong sad
136,sad_low,3,1670.7909999999997,NA,NA,NA
137,angry_low,5,1673.8139999999999,NA,NA,low
137,angry_low,11,1675.0076,NA,NA,NA
137,angry_low,12,1675.2409000000002,0.22080000000028122,left,correct
137,angry_low,6,1676.2579999999998,NA,NA,NA
137,angry_low,7,1676.8565999999998,0.5932000000000244,left,correct
137,angry_low,9,1677.0756999999999,NA,0,correct angry
137,angry_low,3,1678.5899999999997,NA,NA,NA
138,sad_high,5,1681.0946999999999,NA,NA,high
138,sad_high,11,1682.3229000000001,NA,NA,NA
138,sad_high,12,1682.5070999999998,0.17499999999995453,right,correct
138,sad_high,6,1683.5234,NA,NA,NA
138,sad_high,7,1684.1557,0.6206999999997151,right,correct
138,sad_high,9,1684.3414,NA,-4,correct sad
138,sad_high,3,1685.8560999999997,NA,NA,NA
139,sad_high,5,1687.8594999999998,NA,NA,high
139,sad_high,11,1689.0891,NA,NA,NA
139,sad_high,12,1689.4059000000002,0.30179999999995744,right,correct
139,sad_high,6,1690.4225999999999,NA,NA,NA
139,sad_high,7,1690.9709999999998,0.5421000000001186,right,correct
139,sad_high,9,1691.2406999999998,NA,6,correct sad
139,sad_high,3,1692.7545999999998,NA,NA,NA
140,angry_high,5,1695.2852,NA,NA,high
140,angry_high,11,1696.5044,NA,NA,NA
140,angry_high,12,1696.6216,0.10790000000019973,right,incorrect
140,angry_high,6,1697.6384,NA,NA,NA
140,angry_high,7,1698.2879999999998,0.6415000000001783,left,correct
140,angry_high,9,1698.4564999999998,NA,-6,correct angry
140,angry_high,3,1699.9704000000002,NA,NA,NA
141,angry_low,5,1702.9766,NA,NA,low
141,angry_low,11,1704.1870999999999,NA,NA,NA
141,angry_low,12,1704.4874000000002,0.2903999999998632,left,correct
141,angry_low,6,1705.5043,NA,NA,NA
141,angry_low,7,1705.8863000000001,0.3769999999999527,right,incorrect
141,angry_low,9,1706.3205999999998,NA,-50,wrong angry
141,angry_low,3,1707.8364999999997,NA,NA,NA
142,angry_low,5,1709.8613,NA,NA,low
142,angry_low,11,1711.0727,NA,NA,NA
142,angry_low,12,1711.5528,0.4700000000000273,left,correct
142,angry_low,6,1712.5734999999997,NA,NA,NA
142,angry_low,7,1712.8064999999997,0.23280000000022483,left,correct
142,angry_low,9,1713.3893,NA,46,correct angry
142,angry_low,3,1714.8893,NA,NA,NA
143,sad_high,5,1717.9071,NA,NA,high
143,sad_high,11,1719.1224999999997,NA,NA,NA
143,sad_high,12,1719.4560999999999,0.3307000000002063,right,correct
143,sad_high,6,1720.4686,NA,NA,NA
143,sad_high,7,1720.7388,0.2698000000002594,left,incorrect
143,sad_high,9,1721.2850999999998,NA,-50,wrong sad
143,sad_high,3,1722.7884000000001,NA,NA,NA
144,angry_high,5,1725.3223,NA,NA,high
144,angry_high,11,1726.5217,NA,NA,NA
144,angry_high,12,1727.2390999999998,0.7141000000001441,right,incorrect
144,angry_high,6,1728.2509000000002,NA,NA,NA
144,angry_high,7,1728.7715999999998,0.5203999999998814,right,incorrect
144,angry_high,9,1729.0673,NA,-50,wrong angry
144,angry_high,3,1730.5711999999999,NA,NA,NA
145,angry_low,5,1733.1126,NA,NA,low
145,angry_low,11,1734.3003,NA,NA,NA
145,angry_low,12,1734.6007,0.2862999999999829,left,correct
145,angry_low,6,1735.6172,NA,NA,NA
145,angry_low,7,1735.6502,0.030399999999872307,left,correct
145,angry_low,9,1736.4197,NA,71,correct angry
145,angry_low,3,1737.9328,NA,NA,NA
146,sad_high,5,1739.9368,NA,NA,high
146,sad_high,11,1741.1659000000002,NA,NA,NA
146,sad_high,12,1741.2499999999998,0.07230000000026848,right,correct
146,sad_high,6,1742.2666,NA,NA,NA
146,sad_high,7,1742.3817,0.1066000000000713,left,incorrect
146,sad_high,9,1743.0674999999997,NA,-50,wrong sad
146,sad_high,3,1744.5819000000001,NA,NA,NA
147,sad_high,5,1747.1023,NA,NA,high
147,sad_high,11,1748.2984000000001,NA,NA,NA
147,sad_high,12,1748.5319999999997,0.2258999999999105,left,incorrect
147,sad_high,6,1749.5494,NA,NA,NA
147,sad_high,7,1750.0472,0.49129999999991014,right,correct
147,sad_high,9,1750.3511999999998,NA,13,correct sad
147,sad_high,3,1751.8638,NA,NA,NA
148,sad_low,5,1754.8840999999998,NA,NA,low
148,sad_low,11,1756.0803,NA,NA,NA
148,sad_low,12,1756.1808,0.08739999999988868,right,correct
148,sad_low,6,1757.1979000000001,NA,NA,NA
148,sad_low,7,1757.7634,0.5531999999998334,left,incorrect
148,sad_low,9,1758.0148000000002,NA,-50,wrong sad
148,sad_low,3,1759.5299000000002,NA,NA,NA
149,sad_high,5,1761.5519000000002,NA,NA,high
149,sad_high,11,1762.7629000000002,NA,NA,NA
149,sad_high,12,1762.9800999999998,0.21179999999981192,right,correct
149,sad_high,6,1763.9969999999998,NA,NA,NA
149,sad_high,7,1764.4123,0.40840000000002874,right,correct
149,sad_high,9,1764.7989000000002,NA,23,correct sad
149,sad_high,3,1766.3123,NA,NA,NA
150,angry_high,5,1769.3413,NA,NA,high
150,angry_high,11,1770.5454000000002,NA,NA,NA
150,angry_high,12,1770.6624999999997,0.10339999999996508,right,incorrect
150,angry_high,6,1771.6794999999997,NA,NA,NA
150,angry_high,7,1771.9621,0.2721000000001368,right,incorrect
150,angry_high,9,1772.4802,NA,-50,wrong angry
150,angry_high,3,1773.9948,NA,NA,NA
151,sad_low,5,1776.5178,NA,NA,low
151,sad_low,11,1777.7108,NA,NA,NA
151,sad_low,12,1777.9786,0.2542000000000826,left,incorrect
151,sad_low,6,1778.9949000000001,NA,NA,NA
151,sad_low,7,1779.5775999999998,0.570299999999861,right,correct
151,sad_low,9,1779.7969,NA,2,correct sad
151,sad_low,3,1781.3103,NA,NA,NA
152,angry_high,5,1783.3149,NA,NA,high
152,angry_high,11,1784.5435999999997,NA,NA,NA
152,angry_high,12,1784.8775999999998,0.32019999999965876,right,incorrect
152,angry_high,6,1785.8942,NA,NA,NA
152,angry_high,7,1786.2627,0.36750000000006366,right,incorrect
152,angry_high,9,1786.6939000000002,NA,-50,wrong angry
152,angry_high,3,1788.2096999999999,NA,NA,NA
153,sad_low,5,1791.2353,NA,NA,low
153,sad_low,11,1792.4423,NA,NA,NA
153,sad_low,12,1792.6262,0.1772000000000844,left,incorrect
153,sad_low,6,1793.6432,NA,NA,NA
153,sad_low,7,1793.9584999999997,0.30320000000006075,left,incorrect
153,sad_low,9,1794.4442,NA,-50,wrong sad
153,sad_low,3,1795.9583,NA,NA,NA
154,angry_high,5,1798.4850999999999,NA,NA,high
154,angry_high,11,1799.6915999999999,NA,NA,NA
154,angry_high,12,1799.7418,0.046899999999823194,right,incorrect
154,angry_high,6,1800.7592,NA,NA,NA
154,angry_high,7,1801.1904999999997,0.42170000000010077,right,incorrect
154,angry_high,9,1801.5598,NA,-50,wrong angry
154,angry_high,3,1803.0744000000002,NA,NA,NA
155,sad_low,5,1806.0955999999999,NA,NA,low
155,sad_low,11,1807.3074999999997,NA,NA,NA
155,sad_low,12,1810.4596999999999,3.120600000000195,right,correct
155,sad_low,6,1811.4741,NA,NA,NA
155,sad_low,7,1811.7241,0.2420999999999367,right,correct
155,sad_low,9,1812.2915999999998,NA,44,correct sad
155,sad_low,3,1813.8059999999998,NA,NA,NA
156,angry_high,5,1815.8114999999998,NA,NA,high
156,angry_high,11,1817.0393000000001,NA,NA,NA
156,angry_high,12,1817.1229999999998,0.06970000000023902,left,correct
156,angry_high,6,1818.1398000000002,NA,NA,NA
156,angry_high,7,1818.4396,0.2900999999999385,left,correct
156,angry_high,9,1818.9424000000001,NA,38,correct angry
156,angry_high,3,1820.4554,NA,NA,NA
157,angry_high,5,1822.4596,NA,NA,high
157,angry_high,11,1823.6883,NA,NA,NA
157,angry_high,12,1823.9054999999998,0.20470000000022992,left,correct
157,angry_high,6,1824.9220999999998,NA,NA,NA
157,angry_high,7,1825.0544000000002,0.1286000000002332,left,correct
157,angry_high,9,1825.7404000000001,NA,58,correct angry
157,angry_high,3,1827.2540999999999,NA,NA,NA
158,sad_low,5,1829.7601,NA,NA,low
158,sad_low,11,1830.9704000000002,NA,NA,NA
158,sad_low,12,1831.1210999999998,0.14239999999972497,right,correct
158,sad_low,6,1832.1381999999999,NA,NA,NA
158,sad_low,7,1832.1709,0.02200000000016189,right,correct
158,sad_low,9,1832.9558,NA,71,correct sad
158,sad_low,3,1834.4699999999998,NA,NA,NA
159,angry_high,5,1836.4745999999998,NA,NA,high
159,angry_high,11,1837.7033000000001,NA,NA,NA
159,angry_high,12,1838.1874,0.47060000000010405,left,correct
159,angry_high,6,1839.2037,NA,NA,NA
159,angry_high,7,1839.4854999999998,0.28139999999984866,left,correct
159,angry_high,9,1840.0212,NA,40,correct angry
159,angry_high,3,1841.5358,NA,NA,NA
160,angry_low,5,1843.5750999999998,NA,NA,low
160,angry_low,11,1844.8020999999999,NA,NA,NA
160,angry_low,12,1845.0194999999997,0.20460000000002765,right,incorrect
160,angry_low,6,1846.0364000000002,NA,NA,NA
160,angry_low,7,1846.0525999999998,0.009199999999736974,right,incorrect
160,angry_low,9,1846.8524999999997,NA,-50,wrong angry
160,angry_low,3,1848.3683,NA,NA,NA
161,sad_low,5,1851.3959999999997,NA,NA,low
161,sad_low,11,1852.5714999999998,NA,NA,NA
161,sad_low,12,1852.9062,0.33130000000028303,right,correct
161,sad_low,6,1853.9226999999998,NA,NA,NA
161,sad_low,7,1854.2238,0.30070000000023356,left,incorrect
161,sad_low,9,1854.7341999999999,NA,-50,wrong sad
161,sad_low,3,1856.2379999999998,NA,NA,NA
162,angry_high,5,1858.7659,NA,NA,high
162,angry_high,11,1859.9710999999998,NA,NA,NA
162,angry_high,12,1860.3836999999999,0.4069999999999254,left,correct
162,angry_high,6,1861.4048,NA,NA,NA
162,angry_high,7,1861.8873,0.4821999999996933,left,correct
162,angry_high,9,1862.2188,NA,15,correct angry
162,angry_high,3,1863.7204000000002,NA,NA,NA
163,sad_low,5,1865.7244999999998,NA,NA,low
163,sad_low,11,1866.9367,NA,NA,NA
163,sad_low,12,1867.2664999999997,0.31899999999996,right,correct
163,sad_low,6,1868.2704999999999,NA,NA,NA
163,sad_low,7,1868.6484999999998,0.37130000000024665,right,correct
163,sad_low,9,1869.0840999999998,NA,28,correct sad
163,sad_low,3,1870.5863,NA,NA,NA
164,sad_high,5,1873.1067,NA,NA,high
164,sad_high,11,1874.3193,NA,NA,NA
164,sad_high,12,1874.6654999999998,0.33940000000006876,left,incorrect
164,sad_high,6,1875.6697,NA,NA,NA
164,sad_high,7,1875.8401999999999,0.1691000000000713,left,incorrect
164,sad_high,9,1876.4817,NA,-50,wrong sad
164,sad_high,3,1877.9851999999998,NA,NA,NA
165,sad_low,5,1881.0259,NA,NA,low
165,sad_low,11,1882.2345999999998,NA,NA,NA
165,sad_low,12,1882.3859000000002,0.14820000000008804,right,correct
165,sad_low,6,1883.4022,NA,NA,NA
165,sad_low,7,1883.6512,0.24860000000012406,right,correct
165,sad_low,9,1884.2163,NA,44,correct sad
165,sad_low,3,1885.7176,NA,NA,NA
166,angry_high,5,1888.2402,NA,NA,high
166,angry_high,11,1889.4680999999998,NA,NA,NA
166,angry_high,12,1890.0134999999998,0.5351000000002841,right,incorrect
166,angry_high,6,1891.0176999999999,NA,NA,NA
166,angry_high,7,1891.4334000000001,0.4152999999998883,right,incorrect
166,angry_high,9,1891.8293,NA,-50,wrong angry
166,angry_high,3,1893.3329,NA,NA,NA
167,angry_low,5,1896.3755999999998,NA,NA,low
167,angry_low,11,1897.5791,NA,NA,NA
167,angry_low,12,1898.0459999999998,0.46210000000019136,left,correct
167,angry_low,6,1899.0628000000002,NA,NA,NA
167,angry_low,7,1899.6449000000002,0.5707999999997355,left,correct
167,angry_low,9,1899.8806,NA,2,correct angry
167,angry_low,3,1901.3948,NA,NA,NA
168,sad_low,5,1903.3999000000001,NA,NA,low
168,sad_low,11,1904.6279999999997,NA,NA,NA
168,sad_low,12,1905.1953,0.5589999999999691,left,incorrect
168,sad_low,6,1906.2114999999997,NA,NA,NA
168,sad_low,7,1906.5443,0.3305000000000291,left,incorrect
168,sad_low,9,1907.0282,NA,-50,wrong sad
168,sad_low,3,1908.5439999999999,NA,NA,NA
169,sad_low,5,1910.5701,NA,NA,low
169,sad_low,11,1911.7770999999998,NA,NA,NA
169,sad_low,12,1912.5104999999999,0.7288999999998396,right,correct
169,sad_low,6,1913.5276999999999,NA,NA,NA
169,sad_low,7,1913.9429000000002,0.4032999999999447,right,correct
169,sad_low,9,1914.3454999999997,NA,23,correct sad
169,sad_low,3,1915.8594,NA,NA,NA
170,angry_low,5,1918.3969000000002,NA,NA,low
170,angry_low,11,1919.6094999999998,NA,NA,NA
170,angry_low,12,1920.4464,0.8075000000001182,right,incorrect
170,angry_low,6,1921.4600999999998,NA,NA,NA
170,angry_low,7,1921.9254,0.4596000000001368,left,correct
170,angry_low,9,1922.2774999999997,NA,17,correct angry
170,angry_low,3,1923.7919000000002,NA,NA,NA
171,angry_high,5,1925.7985999999999,NA,NA,high
171,angry_high,11,1927.0249999999999,NA,NA,NA
171,angry_high,12,1927.5089999999998,0.4723999999998796,left,correct
171,angry_high,6,1928.5259,NA,NA,NA
171,angry_high,7,1928.9243000000001,0.38659999999958927,left,correct
171,angry_high,9,1929.3430999999998,NA,25,correct angry
171,angry_high,3,1930.8579000000002,NA,NA,NA
172,sad_high,5,1933.8628,NA,NA,high
172,sad_high,11,1935.0904999999998,NA,NA,NA
172,sad_high,12,1935.9580999999998,0.8541000000000167,right,correct
172,sad_high,6,1936.9745999999998,NA,NA,NA
172,sad_high,7,1937.4233,0.4467000000001917,right,correct
172,sad_high,9,1937.7921,NA,19,correct sad
172,sad_high,3,1939.3069999999998,NA,NA,NA
173,sad_low,5,1941.8115999999998,NA,NA,low
173,sad_low,11,1943.0399000000002,NA,NA,NA
173,sad_low,12,1943.9234000000001,0.8750999999995202,right,correct
173,sad_low,6,1944.9403,NA,NA,NA
173,sad_low,7,1945.4392,0.486299999999801,right,correct
173,sad_low,9,1945.7582,NA,13,correct sad
173,sad_low,3,1947.2721999999999,NA,NA,NA
174,angry_high,5,1949.2773,NA,NA,high
174,angry_high,11,1950.4888,NA,NA,NA
174,angry_high,12,1951.0059999999999,0.503800000000183,left,correct
174,angry_high,6,1952.0225999999998,NA,NA,NA
174,angry_high,7,1952.3548,0.3243999999999687,left,correct
174,angry_high,9,1952.8403,NA,33,correct angry
174,angry_high,3,1954.3549,NA,NA,NA
175,angry_low,5,1956.8819,NA,NA,low
175,angry_low,11,1958.0750999999998,NA,NA,NA
175,angry_low,12,1959.3209000000002,1.2419999999999618,left,correct
175,angry_low,6,1960.3379999999997,NA,NA,NA
175,angry_low,7,1960.7409999999998,0.4027000000000953,right,incorrect
175,angry_low,9,1961.1412,NA,-50,wrong angry
175,angry_low,3,1962.6579999999997,NA,NA,NA
176,sad_low,5,1965.6816,NA,NA,low
176,sad_low,11,1966.8912,NA,NA,NA
176,sad_low,12,1967.5082,0.6132999999999811,left,incorrect
176,sad_low,6,1968.5237,NA,NA,NA
176,sad_low,7,1969.0068,0.48270000000024993,left,incorrect
176,sad_low,9,1969.3368,NA,-50,wrong sad
176,sad_low,3,1970.8401999999999,NA,NA,NA
177,angry_high,5,1973.3804000000002,NA,NA,high
177,angry_high,11,1974.5685999999998,NA,NA,NA
177,angry_high,12,1975.1690999999998,0.5948000000003049,right,incorrect
177,angry_high,6,1976.1719,NA,NA,NA
177,angry_high,7,1976.4564999999998,0.2842999999998028,right,incorrect
177,angry_high,9,1976.9729000000002,NA,-50,wrong angry
177,angry_high,3,1978.4888,NA,NA,NA
178,sad_low,5,1980.5113000000001,NA,NA,low
178,sad_low,11,1981.7224999999999,NA,NA,NA
178,sad_low,12,1982.2850999999998,0.552199999999857,right,correct
178,sad_low,6,1983.3054000000002,NA,NA,NA
178,sad_low,7,1983.7837,0.47100000000000364,left,incorrect
178,sad_low,9,1984.1179999999997,NA,-50,wrong sad
178,sad_low,3,1985.6214999999997,NA,NA,NA
179,sad_low,5,1988.6561,NA,NA,low
179,sad_low,11,1989.8539,NA,NA,NA
179,sad_low,12,1990.5840999999998,0.7197999999998501,right,correct
179,sad_low,6,1991.6008,NA,NA,NA
179,sad_low,7,1992.0163,0.40269999999986794,right,correct
179,sad_low,9,1992.4188000000001,NA,23,correct sad
179,sad_low,3,1993.9209,NA,NA,NA
180,sad_high,5,1995.9699999999998,NA,NA,high
180,sad_high,11,1997.1828,NA,NA,NA
180,sad_high,12,1998.3830999999998,1.1873999999997977,left,incorrect
180,sad_high,6,1999.3996,NA,NA,NA
180,sad_high,7,1999.8994999999998,0.4885999999999058,right,correct
180,sad_high,9,2000.2176,NA,13,correct sad
180,sad_high,3,2001.7319999999997,NA,NA,NA
181,angry_high,5,2004.2369999999999,NA,NA,high
181,angry_high,11,2005.4651,NA,NA,NA
181,angry_high,12,2005.8147,0.3382000000001426,left,correct
181,angry_high,6,2006.8158,NA,NA,NA
181,angry_high,7,2007.3310999999999,0.5032999999998538,right,incorrect
181,angry_high,9,2007.6316,NA,-50,wrong angry
181,angry_high,3,2009.1479999999997,NA,NA,NA
182,sad_low,5,2011.1734999999996,NA,NA,low
182,sad_low,11,2012.3685999999998,NA,NA,NA
182,sad_low,12,2013.1191999999999,0.7473999999999705,right,correct
182,sad_low,6,2014.1308000000001,NA,NA,NA
182,sad_low,7,2014.5844000000002,0.4533999999998741,right,correct
182,sad_low,9,2014.9494000000002,NA,18,correct sad
182,sad_low,3,2016.4506999999999,NA,NA,NA
183,angry_high,5,2019.4758,NA,NA,high
183,angry_high,11,2020.6678,NA,NA,NA
183,angry_high,12,2021.3681,0.6971000000000913,left,correct
183,angry_high,6,2022.3809,NA,NA,NA
183,angry_high,7,2022.9673,0.5860000000000127,left,correct
183,angry_high,9,2023.1979000000001,NA,2,correct angry
183,angry_high,3,2024.6999999999998,NA,NA,NA
184,angry_high,5,2027.2433,NA,NA,high
184,angry_high,11,2028.4454999999998,NA,NA,NA
184,angry_high,12,2029.2624,0.8043000000002394,right,incorrect
184,angry_high,6,2030.2794000000001,NA,NA,NA
184,angry_high,7,2030.8114,0.5207000000000335,left,correct
184,angry_high,9,2031.0971,NA,8,correct angry
184,angry_high,3,2032.6110999999999,NA,NA,NA
185,sad_high,5,2034.6174999999998,NA,NA,high
185,sad_high,11,2035.8441999999998,NA,NA,NA
185,sad_high,12,2036.3115999999998,0.4540999999999258,left,incorrect
185,sad_high,6,2037.3284999999994,NA,NA,NA
185,sad_high,7,2037.8938999999998,0.5557000000003427,left,incorrect
185,sad_high,9,2038.1446999999996,NA,-50,wrong sad
185,sad_high,3,2039.6601999999996,NA,NA,NA
186,angry_high,5,2042.1833,NA,NA,high
186,angry_high,11,2043.3933999999997,NA,NA,NA
186,angry_high,12,2044.0763999999997,0.673099999999522,right,incorrect
186,angry_high,6,2045.0939,NA,NA,NA
186,angry_high,7,2045.6258,0.526199999999335,left,correct
186,angry_high,9,2045.9117999999996,NA,8,correct angry
186,angry_high,3,2047.4262999999999,NA,NA,NA
187,angry_high,5,2050.4307,NA,NA,high
187,angry_high,11,2051.6592,NA,NA,NA
187,angry_high,12,2052.8733,1.1943999999998596,right,incorrect
187,angry_high,6,2053.8764,NA,NA,NA
187,angry_high,7,2054.5582,0.6760999999996784,left,correct
187,angry_high,9,2054.6942,NA,-10,correct angry
187,angry_high,3,2056.2086,NA,NA,NA
188,sad_low,5,2059.2356999999997,NA,NA,low
188,sad_low,11,2060.4243,NA,NA,NA
188,sad_low,12,2061.1298,0.7031999999999243,right,correct
188,sad_low,6,2062.1414,NA,NA,NA
188,sad_low,7,2062.5944999999997,0.45269999999982247,left,incorrect
188,sad_low,9,2062.9579000000003,NA,-50,wrong sad
188,sad_low,3,2064.4618,NA,NA,NA
189,angry_high,5,2067.0033,NA,NA,high
189,angry_high,11,2068.2070999999996,NA,NA,NA
189,angry_high,12,2068.7243,0.5044000000002598,left,correct
189,angry_high,6,2069.7407,NA,NA,NA
189,angry_high,7,2070.2727,0.5235999999999876,left,correct
189,angry_high,9,2070.5586,NA,8,correct angry
189,angry_high,3,2072.0731,NA,NA,NA
190,sad_low,5,2074.1077,NA,NA,low
190,sad_low,11,2075.3392,NA,NA,NA
190,sad_low,12,2075.8903,0.5425000000000182,left,incorrect
190,sad_low,6,2076.9067,NA,NA,NA
190,sad_low,7,2077.4395999999997,0.5298999999999978,left,incorrect
190,sad_low,9,2077.7229,NA,-50,wrong sad
190,sad_low,3,2079.2387,NA,NA,NA
191,sad_low,5,2081.7625,NA,NA,low
191,sad_low,11,2082.9717,NA,NA,NA
191,sad_low,12,2083.5079000000005,0.5264999999999418,right,correct
191,sad_low,6,2084.5222999999996,NA,NA,NA
191,sad_low,7,2085.1378,0.6036000000008244,right,correct
191,sad_low,9,2085.3397999999997,NA,-2,correct sad
191,sad_low,3,2086.8545999999997,NA,NA,NA
192,angry_low,5,2089.8597,NA,NA,low
192,angry_low,11,2091.0875,NA,NA,NA
192,angry_low,12,2092.0710999999997,0.9717999999998028,right,incorrect
192,angry_low,6,2093.088,NA,NA,NA
192,angry_low,7,2093.6697000000004,0.5710999999992055,left,correct
192,angry_low,9,2093.906,NA,2,correct angry
192,angry_low,3,2095.4194,NA,NA,NA
193,angry_high,5,2098.425,NA,NA,high
193,angry_high,11,2099.6530999999995,NA,NA,NA
193,angry_high,12,2100.1366,0.4775999999992564,right,incorrect
193,angry_high,6,2101.1535999999996,NA,NA,NA
193,angry_high,7,2101.7355999999995,0.570100000000366,left,correct
193,angry_high,9,2101.9712999999997,NA,2,correct angry
193,angry_high,3,2103.4855999999995,NA,NA,NA
194,angry_low,5,2105.4910999999997,NA,NA,low
194,angry_low,11,2106.7187000000004,NA,NA,NA
194,angry_low,12,2107.0697,0.34249999999974534,left,correct
194,angry_low,6,2108.0860999999995,NA,NA,NA
194,angry_low,7,2108.5348,0.441800000000967,left,correct
194,angry_low,9,2108.9037999999996,NA,19,correct angry
194,angry_low,3,2110.4182,NA,NA,NA
195,sad_low,5,2113.4437000000003,NA,NA,low
195,sad_low,11,2114.6389000000004,NA,NA,NA
195,sad_low,12,2115.8550999999998,1.2128999999999905,right,correct
195,sad_low,6,2116.8682999999996,NA,NA,NA
195,sad_low,7,2117.3704000000002,0.5018000000000029,right,correct
195,sad_low,9,2117.674,NA,12,correct sad
195,sad_low,3,2119.1880999999994,NA,NA,NA
196,angry_high,5,2121.6877999999997,NA,NA,high
196,angry_high,11,2122.9001,NA,NA,NA
196,angry_high,12,2124.2379000000005,1.3338999999996304,right,incorrect
196,angry_high,6,2125.2505999999994,NA,NA,NA
196,angry_high,7,2125.6702999999998,0.4193000000009306,right,incorrect
196,angry_high,9,2126.0535,NA,-50,wrong angry
196,angry_high,3,2127.5660999999996,NA,NA,NA
197,sad_low,5,2129.5885,NA,NA,low
197,sad_low,11,2130.7823,NA,NA,NA
197,sad_low,12,2131.3495999999996,0.5617000000002008,right,correct
197,sad_low,6,2132.3662000000004,NA,NA,NA
197,sad_low,7,2132.9315999999994,0.5601999999998952,left,incorrect
197,sad_low,9,2133.1824,NA,-50,wrong sad
197,sad_low,3,2134.6985,NA,NA,NA
198,angry_high,5,2137.7215,NA,NA,high
198,angry_high,11,2138.9148,NA,NA,NA
198,angry_high,12,2139.6321,0.7102999999997337,left,correct
198,angry_high,6,2140.6487,NA,NA,NA
198,angry_high,7,2141.0969000000005,0.44370000000026266,left,correct
198,angry_high,9,2141.4662000000003,NA,19,correct angry
198,angry_high,3,2142.9805,NA,NA,NA
199,sad_low,5,2145.4827999999998,NA,NA,low
199,sad_low,11,2146.697,NA,NA,NA
199,sad_low,12,2148.7474,2.0356000000001586,left,incorrect
199,sad_low,6,2149.7640999999994,NA,NA,NA
199,sad_low,9,2150.5960999999998,NA,-200,too slow sad
NA,sad_low,3,2152.0809000000004,NA,NA,NA