trial,trial_type,event_type,absolute_time,response_time,response,result
NA,NA,2,0,NA,NA,NA
0,INSTRUCTIONS,8,0.0018000000007454275,NA,NA,NA
NA,RATE_FACES,8,217.23240000000226,NA,NA,NA
0,RATE_FACES,4,217.23530000000076,,,
0,RATE_FACES,7,218.63700000000003,1.3851999999992586,right,correct
0,RATE_FACES,9,218.95290000000224,NA,NA,NA
1,RATE_FACES,4,219.95740000000225,,,
1,RATE_FACES,7,220.6351000000015,0.6681999999992456,left,correct
1,RATE_FACES,9,220.9511000000015,NA,NA,NA
2,RATE_FACES,4,221.95469999999926,,,
2,RATE_FACES,7,223.33510000000152,1.3699000000022465,right,correct
2,RATE_FACES,9,223.65040000000226,NA,NA,NA
3,RATE_FACES,4,224.65530000000075,,,
3,RATE_FACES,7,225.4351000000015,0.7683000000007496,right,correct
3,RATE_FACES,9,225.75090000000225,NA,NA,NA
4,RATE_FACES,4,226.75480000000076,,,
4,RATE_FACES,7,227.60190000000225,0.8328000000007592,left,correct
4,RATE_FACES,9,227.9176999999993,NA,NA,NA
5,RATE_FACES,4,228.9381000000015,,,
5,RATE_FACES,7,229.6016000000015,0.6623999999985131,right,correct
5,RATE_FACES,9,229.91780000000077,NA,NA,NA
6,RATE_FACES,4,230.92140000000225,,,
6,RATE_FACES,7,231.5511000000015,0.6280000000000143,left,correct
6,RATE_FACES,9,231.86769999999927,NA,NA,NA
7,RATE_FACES,4,232.88790000000225,,,
7,RATE_FACES,7,233.63500000000002,0.7328999999984944,right,correct
7,RATE_FACES,9,233.95119999999926,NA,NA,NA
8,RATE_FACES,4,234.95480000000074,,,
8,RATE_FACES,7,235.55180000000078,0.5827999999970075,left,correct
8,RATE_FACES,9,235.86780000000076,NA,NA,NA
9,RATE_FACES,4,236.88940000000227,,,
9,RATE_FACES,7,237.768,0.8675999999977648,right,incorrect
9,RATE_FACES,7,239.41830000000076,1.6165999999977885,left,correct
10,RATE_FACES,4,240.73830000000075,,,
10,RATE_FACES,7,241.4675,0.720800000000736,left,correct
10,RATE_FACES,9,241.76769999999928,NA,NA,NA
11,RATE_FACES,4,242.78780000000077,,,
11,RATE_FACES,7,244.2181000000015,1.4166000000014947,left,incorrect
11,RATE_FACES,7,245.919,1.6706999999992718,right,correct
12,RATE_FACES,4,247.2396000000015,,,
12,RATE_FACES,7,249.11890000000224,1.8643000000007532,right,incorrect
12,RATE_FACES,7,250.76869999999926,1.6200000000000045,left,correct
13,RATE_FACES,4,252.08850000000004,,,
13,RATE_FACES,7,253.0181000000015,0.9154999999999518,right,correct
13,RATE_FACES,9,253.33460000000153,NA,NA,NA
14,RATE_FACES,4,254.338,,,
14,RATE_FACES,7,256.10119999999927,1.749900000002242,left,incorrect
14,RATE_FACES,7,258.11899999999997,1.9868999999985135,right,correct
15,RATE_FACES,4,259.45519999999925,,,
15,RATE_FACES,7,261.13490000000223,1.6742000000029975,right,correct
15,RATE_FACES,9,261.43480000000073,NA,NA,NA
16,RATE_FACES,4,262.4549000000022,,,
16,RATE_FACES,7,263.15169999999927,0.682299999997042,left,correct
16,RATE_FACES,9,263.4679000000022,NA,NA,NA
17,RATE_FACES,4,264.4719000000022,,,
17,RATE_FACES,7,265.4846000000015,1.0071000000015147,right,correct
17,RATE_FACES,9,265.7845,NA,NA,NA
18,RATE_FACES,4,266.78869999999927,,,
18,RATE_FACES,7,268.13519999999926,1.332300000000771,left,correct
18,RATE_FACES,9,268.45119999999923,NA,NA,NA
19,RATE_FACES,4,269.456,,,
19,RATE_FACES,7,270.3186000000015,0.8505999999977689,right,correct
19,RATE_FACES,9,270.61819999999926,NA,NA,NA
20,RATE_FACES,4,271.63819999999924,,,
20,RATE_FACES,7,273.60060000000146,1.9557000000029916,left,correct
20,RATE_FACES,9,273.90130000000073,NA,NA,NA
21,RATE_FACES,4,274.90560000000147,,,
21,RATE_FACES,7,276.8676999999992,1.9486000000015338,left,correct
21,RATE_FACES,9,277.16790000000225,NA,NA,NA
22,RATE_FACES,4,278.18740000000224,,,
22,RATE_FACES,7,278.96860000000146,0.7665999999977657,left,correct
22,RATE_FACES,9,279.28469999999925,NA,NA,NA
23,RATE_FACES,4,280.2881999999992,,,
23,RATE_FACES,7,281.53530000000075,1.24580000000077,left,incorrect
23,RATE_FACES,7,283.9189000000022,2.3543999999985203,right,correct
0,PRACTICE,8,285.24030000000073,NA,NA,NA
0,PRACTICE2,8,296.6461999999992,NA,NA,NA
NA,PRACTICE,8,309.5795,NA,NA,NA
NA,PRACTICE,3,309.58030000000076,NA,NA,NA
0,angry_high,5,312.5879000000022,NA,NA,high
0,angry_high,11,313.818,NA,NA,NA
0,angry_high,12,315.0525,1.2198999999985176,right,incorrect
0,angry_high,6,316.0728000000007,NA,NA,NA
0,angry_high,9,317.00119999999924,NA,-200,too slow angry
NA,angry_high,3,318.4863000000007,NA,NA,NA
1,sad_high,5,320.49649999999997,NA,NA,high
1,sad_high,11,321.7006000000015,NA,NA,NA
1,sad_high,12,322.65219999999925,0.9361000000014883,left,incorrect
1,sad_high,6,323.6719000000022,NA,NA,NA
1,sad_high,7,324.4504000000022,0.7711999999992827,left,incorrect
1,sad_high,9,324.586,NA,-50,wrong sad
1,sad_high,3,326.10090000000224,NA,NA,NA
2,angry_low,5,329.11310000000145,NA,NA,low
2,angry_low,11,330.31830000000076,NA,NA,NA
2,angry_low,12,332.0461000000015,1.7011000000014747,right,incorrect
2,angry_low,6,333.05260000000146,NA,NA,NA
2,angry_low,7,333.7015,0.6375000000000455,right,incorrect
2,angry_low,9,333.9679000000022,NA,-50,wrong angry
2,angry_low,3,335.46830000000074,NA,NA,NA
3,sad_low,5,337.4874000000022,NA,NA,low
3,sad_low,11,338.7016999999992,NA,NA,NA
3,sad_low,12,339.08530000000076,0.36800000000005184,left,incorrect
3,sad_low,6,340.1015,NA,NA,NA
3,sad_low,7,340.5181000000015,0.4086000000015133,left,incorrect
3,sad_low,9,341.01769999999925,NA,-50,wrong sad
3,sad_low,3,342.51830000000075,NA,NA,NA
0,MAIN,8,345.54560000000146,NA,NA,NA
NA,MAIN,8,358.85519999999923,NA,NA,NA
NA,MAIN,3,358.8558000000007,NA,NA,NA
0,sad_high,5,361.85519999999923,NA,NA,high
0,sad_high,11,363.0851000000015,NA,NA,NA
0,sad_high,12,363.83580000000075,0.7358000000007223,right,correct
0,sad_high,6,364.852,NA,NA,NA
0,sad_high,7,365.45160000000146,0.589300000000776,right,correct
0,sad_high,9,365.6543000000007,NA,0,correct sad
0,sad_high,3,367.1686000000015,NA,NA,NA
1,angry_low,5,369.1724000000022,NA,NA,low
1,angry_low,11,370.40190000000223,NA,NA,NA
1,angry_low,12,370.83580000000075,0.4178000000007387,left,correct
1,angry_low,6,371.8526000000015,NA,NA,NA
1,angry_low,7,372.3516000000015,0.4883999999985349,left,correct
1,angry_low,9,372.6699000000022,NA,13,correct angry
1,angry_low,3,374.16780000000074,NA,NA,NA
2,sad_high,5,377.17960000000147,NA,NA,high
2,sad_high,11,378.40140000000224,NA,NA,NA
2,sad_high,12,378.78499999999997,0.36830000000077234,right,correct
2,sad_high,6,379.78619999999927,NA,NA,NA
2,sad_high,7,380.03499999999997,0.23510000000146647,right,correct
2,sad_high,9,380.60419999999925,NA,44,correct sad
2,sad_high,3,382.1181000000015,NA,NA,NA
3,sad_high,5,385.13019999999926,NA,NA,high
3,sad_high,11,386.35110000000145,NA,NA,NA
3,sad_high,12,386.7358000000007,0.369100000001481,right,correct
3,sad_high,6,387.7528000000007,NA,NA,NA
3,sad_high,7,387.9841000000015,0.21989999999851761,right,correct
3,sad_high,9,388.57119999999924,NA,46,correct sad
3,sad_high,3,390.0845,NA,NA,NA
4,angry_low,5,392.0886999999992,NA,NA,low
4,angry_low,11,393.3186000000015,NA,NA,NA
4,angry_low,12,393.351,0.023300000000745058,left,correct
4,angry_low,6,394.352,NA,NA,NA
4,angry_low,7,394.63519999999926,0.2828000000007478,left,correct
4,angry_low,9,395.1544000000022,NA,40,correct angry
4,angry_low,3,396.66869999999926,NA,NA,NA
5,sad_high,5,399.68169999999924,NA,NA,high
5,sad_high,11,400.90080000000074,NA,NA,NA
5,sad_high,12,401.28590000000224,0.36950000000001637,right,correct
5,sad_high,6,402.30280000000073,NA,NA,NA
5,sad_high,7,402.6184000000022,0.3146999999992772,right,correct
5,sad_high,9,403.1209000000022,NA,35,correct sad
5,sad_high,3,404.635,NA,NA,NA
6,angry_low,5,407.1471000000015,NA,NA,low
6,angry_low,11,408.3521000000015,NA,NA,NA
6,angry_low,12,408.6359000000022,0.26779999999700976,left,correct
6,angry_low,6,409.6529000000022,NA,NA,NA
6,angry_low,7,409.93540000000223,0.2820000000000391,left,correct
6,angry_low,9,410.4701000000015,NA,40,correct angry
6,angry_low,3,411.96840000000225,NA,NA,NA
7,sad_high,5,414.9815,NA,NA,high
7,sad_high,11,416.2021000000015,NA,NA,NA
7,sad_high,12,417.11930000000075,0.9038999999984867,right,correct
7,sad_high,6,418.13630000000074,NA,NA,NA
7,sad_high,7,418.23530000000073,0.09780000000074551,right,correct
7,sad_high,9,418.9545,NA,63,correct sad
7,sad_high,3,420.469,NA,NA,NA
8,angry_low,5,422.47219999999925,NA,NA,low
8,angry_low,11,423.7021000000015,NA,NA,NA
8,angry_low,12,424.086,0.3678000000007273,left,correct
8,angry_low,6,425.103,NA,NA,NA
8,angry_low,7,425.31869999999924,0.20519999999925176,left,correct
8,angry_low,9,425.9211000000015,NA,48,correct angry
8,angry_low,3,427.4355,NA,NA,NA
9,angry_low,5,429.94,NA,NA,low
9,angry_low,11,431.1523000000007,NA,NA,NA
9,angry_low,12,431.55290000000224,0.38510000000144373,left,correct
9,angry_low,6,432.57690000000224,NA,NA,NA
9,angry_low,7,432.65190000000223,0.06679999999698794,left,correct
9,angry_low,9,433.3873000000007,NA,66,correct angry
9,angry_low,3,434.90219999999925,NA,NA,NA
10,sad_high,5,437.4091000000015,NA,NA,high
10,sad_high,11,438.63569999999925,NA,NA,NA
10,sad_high,12,438.90280000000075,0.25119999999924403,right,correct
10,sad_high,6,439.91969999999924,NA,NA,NA
10,sad_high,7,440.0186999999992,0.090400000002262,right,correct
10,sad_high,9,440.7215,NA,63,correct sad
10,sad_high,3,442.23530000000073,NA,NA,NA
11,angry_high,5,445.24710000000147,NA,NA,high
11,angry_high,11,446.4523000000007,NA,NA,NA
11,angry_high,12,446.7856999999992,0.3257999999970025,right,incorrect
11,angry_high,6,447.80319999999926,NA,NA,NA
11,angry_high,7,447.86880000000076,0.05820000000295522,right,incorrect
11,angry_high,9,448.61930000000075,NA,-50,wrong angry
11,angry_high,3,450.13569999999925,NA,NA,NA
12,sad_high,5,452.6379000000022,NA,NA,high
12,sad_high,11,453.8356000000015,NA,NA,NA
12,sad_high,12,454.16869999999926,0.3211000000014792,left,incorrect
12,sad_high,6,455.18619999999925,NA,NA,NA
12,sad_high,7,455.25169999999923,0.06450000000000955,left,incorrect
12,sad_high,9,456.00180000000074,NA,-50,wrong sad
12,sad_high,3,457.50210000000146,NA,NA,NA
13,angry_low,5,459.51390000000225,NA,NA,low
13,angry_low,11,460.7191000000015,NA,NA,NA
13,angry_low,12,462.335,1.6008000000007314,left,correct
13,angry_low,6,463.33669999999927,NA,NA,NA
13,angry_low,7,463.5854000000022,0.23949999999996407,left,correct
13,angry_low,9,464.1545,NA,44,correct angry
13,angry_low,3,465.66919999999925,NA,NA,NA
14,sad_low,5,468.6615,NA,NA,low
14,sad_low,11,469.86919999999924,NA,NA,NA
14,sad_low,12,470.1696000000015,0.28469999999924767,left,incorrect
14,sad_low,6,471.1866000000015,NA,NA,NA
14,sad_low,7,471.269,0.0711999999992372,left,incorrect
14,sad_low,9,472.00190000000225,NA,-50,wrong sad
14,sad_low,3,473.50240000000224,NA,NA,NA
15,sad_high,5,476.0156000000015,NA,NA,high
15,sad_high,11,477.21919999999926,NA,NA,NA
15,sad_high,12,478.01910000000146,0.790899999998544,left,incorrect
15,sad_high,6,479.0199000000022,NA,NA,NA
15,sad_high,7,479.48569999999927,0.45629999999704296,left,incorrect
15,sad_high,9,479.8361999999992,NA,-50,wrong sad
15,sad_high,3,481.3521000000015,NA,NA,NA
16,angry_low,5,483.36430000000075,NA,NA,low
16,angry_low,11,484.5859000000022,NA,NA,NA
16,angry_low,12,485.8196999999993,1.2214999999999918,left,correct
16,angry_low,6,486.8359000000022,NA,NA,NA
16,angry_low,7,487.169,0.3205999999977962,left,correct
16,angry_low,9,487.6381000000015,NA,33,correct angry
16,angry_low,3,489.1524000000023,NA,NA,NA
17,sad_low,5,491.65500000000003,NA,NA,low
17,sad_low,11,492.8685,NA,NA,NA
17,sad_low,12,493.0866000000015,0.20259999999768752,left,incorrect
17,sad_low,6,494.1031999999993,NA,NA,NA
17,sad_low,7,494.2356999999992,0.1196000000014692,left,incorrect
17,sad_low,9,494.9196999999993,NA,-50,wrong sad
17,sad_low,3,496.43610000000143,NA,NA,NA
18,angry_low,5,498.4484000000022,NA,NA,low
18,angry_low,11,499.6694000000022,NA,NA,NA
18,angry_low,12,500.0699000000022,0.3875999999978603,right,incorrect
18,angry_low,6,501.0868000000008,NA,NA,NA
18,angry_low,7,501.1525,0.05569999999920583,right,incorrect
18,angry_low,9,501.90310000000153,NA,-50,wrong angry
18,angry_low,3,503.41930000000076,NA,NA,NA
19,sad_high,5,505.93060000000145,NA,NA,high
19,sad_high,11,507.15269999999924,NA,NA,NA
19,sad_high,12,507.7533000000007,0.5866000000015674,left,incorrect
19,sad_high,6,508.7691999999992,NA,NA,NA
19,sad_high,7,509.2691000000015,0.4995000000000118,left,incorrect
19,sad_high,9,509.58649999999994,NA,-50,wrong sad
19,sad_high,3,511.1026000000015,NA,NA,NA
20,angry_low,5,514.1203000000008,NA,NA,low
20,angry_low,11,515.3361999999993,NA,NA,NA
20,angry_low,12,517.4629000000023,2.10160000000144,left,correct
20,angry_low,6,518.4703000000007,NA,NA,NA
20,angry_low,7,518.7693000000008,0.28730000000075506,left,correct
20,angry_low,9,519.2884000000023,NA,38,correct angry
20,angry_low,3,520.8021999999993,NA,NA,NA
21,sad_low,5,522.8058000000008,NA,NA,low
21,sad_low,11,524.0361000000015,NA,NA,NA
21,sad_low,12,524.1356999999992,0.08369999999933952,left,incorrect
21,sad_low,6,525.1368000000008,NA,NA,NA
21,sad_low,7,525.4026000000015,0.2535000000000309,left,incorrect
21,sad_low,9,525.9531999999994,NA,-50,wrong sad
21,sad_low,3,527.4696000000015,NA,NA,NA
22,angry_high,5,530.4814000000023,NA,NA,high
22,angry_high,11,531.7030000000001,NA,NA,NA
22,angry_high,12,532.6185,0.9081999999992831,left,correct
22,angry_high,6,533.6371999999993,NA,NA,NA
22,angry_high,7,534.1183000000008,0.4721000000014328,right,incorrect
22,angry_high,9,534.4531000000015,NA,-50,wrong angry
22,angry_high,3,535.969,NA,NA,NA
23,angry_low,5,538.4819000000023,NA,NA,low
23,angry_low,11,539.6863000000008,NA,NA,NA
23,angry_low,12,540.4201000000015,0.7227999999970507,right,incorrect
23,angry_low,6,541.437,NA,NA,NA
23,angry_low,7,541.9526999999993,0.5040999999977203,right,incorrect
23,angry_low,9,542.2521999999993,NA,-50,wrong angry
23,angry_low,3,543.7695,NA,NA,NA
24,sad_high,5,545.7811000000015,NA,NA,high
24,sad_high,11,547.0019000000023,NA,NA,NA
24,sad_high,12,548.4019000000022,1.3900999999976875,right,correct
24,sad_high,6,549.4036999999993,NA,NA,NA
24,sad_high,7,549.9028000000008,0.48740000000225336,left,incorrect
24,sad_high,9,550.22,NA,-50,wrong sad
24,sad_high,3,551.7351999999993,NA,NA,NA
25,angry_low,5,554.2470000000001,NA,NA,low
25,angry_low,11,555.4686999999993,NA,NA,NA
25,angry_low,12,556.7526000000015,1.2690000000000055,left,correct
25,angry_low,6,557.7538000000008,NA,NA,NA
25,angry_low,7,558.0525,0.29580000000078144,left,correct
25,angry_low,9,558.5719000000023,NA,38,correct angry
25,angry_low,3,560.0855,NA,NA,NA
26,sad_high,5,563.0976000000015,NA,NA,high
26,sad_high,11,564.3021000000016,NA,NA,NA
26,sad_high,12,564.6028000000008,0.2916999999993095,right,correct
26,sad_high,6,565.6039000000022,NA,NA,NA
26,sad_high,7,565.9529000000023,0.3366999999992686,right,correct
26,sad_high,9,566.4214000000023,NA,31,correct sad
26,sad_high,3,567.9363000000008,NA,NA,NA
27,sad_high,5,569.9391999999993,NA,NA,high
27,sad_high,11,571.1688000000008,NA,NA,NA
27,sad_high,12,571.5535000000001,0.36909999999784304,right,correct
27,sad_high,6,572.5706000000015,NA,NA,NA
27,sad_high,7,573.0361999999993,0.4528999999985217,right,correct
27,sad_high,9,573.3883000000008,NA,17,correct sad
27,sad_high,3,574.9031000000016,NA,NA,NA
28,angry_low,5,577.9141999999993,NA,NA,low
28,angry_low,11,579.1199000000023,NA,NA,NA
28,angry_low,12,579.4363000000008,0.2996000000014192,left,correct
28,angry_low,6,580.4376000000016,NA,NA,NA
28,angry_low,7,580.6861999999993,0.23689999999851352,left,correct
28,angry_low,9,581.2548000000008,NA,44,correct angry
28,angry_low,3,582.7531000000015,NA,NA,NA
29,angry_high,5,584.7566999999993,NA,NA,high
29,angry_high,11,585.9855,NA,NA,NA
29,angry_high,12,586.3198000000008,0.3320999999978085,right,incorrect
29,angry_high,6,587.3373000000008,NA,NA,NA
29,angry_high,7,587.4696000000015,0.13189999999849533,right,incorrect
29,angry_high,9,588.1534000000023,NA,-50,wrong angry
29,angry_high,3,589.6698000000008,NA,NA,NA
30,angry_low,5,592.6866999999993,NA,NA,low
30,angry_low,11,593.9031999999993,NA,NA,NA
30,angry_low,12,594.1856000000015,0.271699999999214,right,incorrect
30,angry_low,6,595.1864000000023,NA,NA,NA
30,angry_low,7,595.5031000000015,0.3053999999984853,right,incorrect
30,angry_low,9,595.9871999999993,NA,-50,wrong angry
30,angry_low,3,597.5031999999993,NA,NA,NA
31,sad_high,5,600.0136999999993,NA,NA,high
31,sad_high,11,601.2033000000008,NA,NA,NA
31,sad_high,12,601.5363000000008,0.32040000000222335,right,correct
31,sad_high,6,602.5373000000008,NA,NA,NA
31,sad_high,7,602.9695,0.4238000000008242,right,correct
31,sad_high,9,603.3553000000007,NA,21,correct sad
31,sad_high,3,604.8691000000015,NA,NA,NA
32,sad_high,5,607.8816999999993,NA,NA,high
32,sad_high,11,609.0861000000016,NA,NA,NA
32,sad_high,12,609.4373000000008,0.3356000000014774,right,correct
32,sad_high,6,610.4540000000001,NA,NA,NA
32,sad_high,7,610.4703000000007,0.004800000000727778,right,correct
32,sad_high,9,611.2721999999993,NA,73,correct sad
32,sad_high,3,612.7866000000015,NA,NA,NA
33,angry_low,5,615.7994000000023,NA,NA,low
33,angry_low,11,617.0200000000001,NA,NA,NA
33,angry_low,12,617.2539000000023,0.22329999999703887,left,correct
33,angry_low,6,618.2708000000008,NA,NA,NA
33,angry_low,7,618.287,0.004600000001460103,left,correct
33,angry_low,9,619.0886999999993,NA,73,correct angry
33,angry_low,3,620.6034000000022,NA,NA,NA
34,sad_high,5,623.1166999999994,NA,NA,high
34,sad_high,11,624.32,NA,NA,NA
34,sad_high,12,624.6706000000015,0.3350000000000364,right,correct
34,sad_high,6,625.687,NA,NA,NA
34,sad_high,7,625.7699000000023,0.08199999999999363,right,correct
34,sad_high,9,626.4884000000022,NA,65,correct sad
34,sad_high,3,628.0034000000023,NA,NA,NA
35,angry_low,5,630.0061999999994,NA,NA,low
35,angry_low,11,631.2368000000008,NA,NA,NA
35,angry_low,12,631.5366000000015,0.28829999999709344,left,correct
35,angry_low,6,632.5375,NA,NA,NA
35,angry_low,7,632.7365000000001,0.18660000000147647,left,correct
35,angry_low,9,633.3553000000007,NA,50,correct angry
35,angry_low,3,634.8701999999993,NA,NA,NA
36,sad_low,5,637.8820000000001,NA,NA,low
36,sad_low,11,639.1035,NA,NA,NA
36,sad_low,12,639.1533000000007,0.04280000000073869,left,incorrect
36,sad_low,6,640.1544000000023,NA,NA,NA
36,sad_low,7,640.1699000000023,0.005899999998518979,left,incorrect
36,sad_low,9,640.9705,NA,-50,wrong sad
36,sad_low,3,642.4869000000023,NA,NA,NA
37,angry_low,5,644.4975000000001,NA,NA,low
37,angry_low,11,645.7203000000007,NA,NA,NA
37,angry_low,12,645.8206999999993,0.08480000000065502,left,correct
37,angry_low,6,646.8376999999992,NA,NA,NA
37,angry_low,7,647.2201000000015,0.37040000000229156,left,correct
37,angry_low,9,647.6556000000015,NA,27,correct angry
37,angry_low,3,649.1701999999993,NA,NA,NA
38,sad_high,5,651.6736000000016,NA,NA,high
38,sad_high,11,652.8869000000022,NA,NA,NA
38,sad_high,12,652.9206000000015,0.03129999999703159,right,correct
38,sad_high,6,653.9376999999993,NA,NA,NA
38,sad_high,7,653.9868000000008,0.04740000000231248,right,correct
38,sad_high,9,654.7556999999993,NA,69,correct sad
38,sad_high,3,656.2704000000023,NA,NA,NA
39,sad_high,5,658.2735,NA,NA,high
39,sad_high,11,659.4871000000015,NA,NA,NA
39,sad_high,12,659.5209000000023,0.03080000000079508,right,correct
39,sad_high,6,660.5376999999993,NA,NA,NA
39,sad_high,7,660.5544000000023,0.01590000000226155,right,correct
39,sad_high,9,661.3556999999993,NA,73,correct sad
39,sad_high,3,662.8703000000008,NA,NA,NA
40,angry_high,5,665.8896999999993,NA,NA,high
40,angry_high,11,667.1030000000001,NA,NA,NA
40,angry_high,12,667.2209000000023,0.10249999999996362,right,incorrect
40,angry_high,6,668.2378000000008,NA,NA,NA
40,angry_high,7,668.254,0.004500000000007276,right,incorrect
40,angry_high,9,669.0540000000001,NA,-50,wrong angry
40,angry_high,3,670.5704000000023,NA,NA,NA
41,angry_low,5,672.5818000000008,NA,NA,low
41,angry_low,11,673.8036999999993,NA,NA,NA
41,angry_low,12,674.1209000000023,0.3020000000000209,right,incorrect
41,angry_low,6,675.1376999999993,NA,NA,NA
41,angry_low,7,675.187,0.03930000000070777,right,incorrect
41,angry_low,9,675.9540000000001,NA,-50,wrong angry
41,angry_low,3,677.4705,NA,NA,NA
42,angry_low,5,679.9830000000001,NA,NA,low
42,angry_low,11,681.2031999999994,NA,NA,NA
42,angry_low,12,681.3041999999994,0.08619999999928041,left,correct
42,angry_low,6,682.321,NA,NA,NA
42,angry_low,7,682.3374000000023,0.004599999997708437,left,correct
42,angry_low,9,683.1389000000023,NA,73,correct angry
42,angry_low,3,684.6538000000008,NA,NA,NA
43,sad_high,5,686.6561000000015,NA,NA,high
43,sad_high,11,687.8704000000023,NA,NA,NA
43,sad_high,12,688.2543000000007,0.3709999999999809,right,correct
43,sad_high,6,689.2711000000015,NA,NA,NA
43,sad_high,7,689.3701999999993,0.09850000000005821,right,correct
43,sad_high,9,690.089,NA,63,correct sad
43,sad_high,3,691.6035,NA,NA,NA
44,angry_high,5,694.1071000000015,NA,NA,high
44,angry_high,11,695.3371000000016,NA,NA,NA
44,angry_high,12,695.3711999999992,0.01700000000005275,right,incorrect
44,angry_high,6,696.3876999999993,NA,NA,NA
44,angry_high,7,696.4704000000023,0.07319999999924676,right,incorrect
44,angry_high,9,697.2046999999993,NA,-50,wrong angry
44,angry_high,3,698.7205,NA,NA,NA
45,angry_low,5,700.7313000000008,NA,NA,low
45,angry_low,11,701.9540000000001,NA,NA,NA
45,angry_low,12,702.3376999999992,0.37380000000075597,right,incorrect
45,angry_low,6,703.3545,NA,NA,NA
45,angry_low,7,703.4869000000023,0.1316000000015265,right,incorrect
45,angry_low,9,704.1708000000008,NA,-50,wrong angry
45,angry_low,3,705.6866999999993,NA,NA,NA
46,sad_high,5,708.6986999999993,NA,NA,high
46,sad_high,11,709.904,NA,NA,NA
46,sad_high,12,709.9711999999993,0.05070000000296204,right,correct
46,sad_high,6,710.9881000000015,NA,NA,NA
46,sad_high,7,711.1536999999993,0.1650000000000773,right,correct
46,sad_high,9,711.8056999999993,NA,54,correct sad
46,sad_high,3,713.3198000000008,NA,NA,NA
47,sad_high,5,715.8236999999993,NA,NA,high
47,sad_high,11,717.0541000000015,NA,NA,NA
47,sad_high,12,717.2045,0.13810000000148648,right,correct
47,sad_high,6,718.2214000000023,NA,NA,NA
47,sad_high,7,718.2371000000015,0.004799999996976112,right,correct
47,sad_high,9,719.0393000000008,NA,73,correct sad
47,sad_high,3,720.5541000000015,NA,NA,NA
48,sad_low,5,723.5659000000023,NA,NA,low
48,sad_low,11,724.7873000000008,NA,NA,NA
48,sad_low,12,724.9045000000001,0.10280000000079781,left,incorrect
48,sad_low,6,725.9214000000023,NA,NA,NA
48,sad_low,7,725.9544000000022,0.018799999996986116,left,incorrect
48,sad_low,9,726.7373000000008,NA,-50,wrong sad
48,sad_low,3,728.2373000000008,NA,NA,NA
49,sad_high,5,730.7648000000008,NA,NA,high
49,sad_high,11,731.9698000000008,NA,NA,NA
49,sad_high,12,732.2878000000007,0.30269999999927677,left,incorrect
49,sad_high,6,733.3049000000022,NA,NA,NA
49,sad_high,7,733.3211000000016,0.015399999998521707,left,incorrect
49,sad_high,9,734.1201000000016,NA,-50,wrong sad
49,sad_high,3,735.6206999999993,NA,NA,NA
50,angry_high,5,738.6564000000022,NA,NA,high
50,angry_high,11,739.8709000000023,NA,NA,NA
50,angry_high,12,741.8634000000022,1.9706000000014683,right,incorrect
50,angry_high,6,742.8716000000015,NA,NA,NA
50,angry_high,7,742.9206000000015,0.04719999999929314,right,incorrect
50,angry_high,9,743.6869000000023,NA,-50,wrong angry
50,angry_high,3,745.2041000000015,NA,NA,NA
51,sad_low,5,747.1991999999993,NA,NA,low
51,sad_low,11,748.4209000000022,NA,NA,NA
51,sad_low,12,749.2864000000022,0.8576000000014119,right,correct
51,sad_low,6,750.2883000000008,NA,NA,NA
51,sad_low,7,750.3364000000023,0.04710000000147829,right,correct
51,sad_low,9,751.1053000000007,NA,69,correct sad
51,sad_low,3,752.6041999999993,NA,NA,NA
52,angry_high,5,755.1178000000008,NA,NA,high
52,angry_high,11,756.3375000000001,NA,NA,NA
52,angry_high,12,756.4048000000008,0.053600000001438275,left,correct
52,angry_high,6,757.4211000000015,NA,NA,NA
52,angry_high,7,757.504,0.08219999999926131,left,correct
52,angry_high,9,758.2228000000008,NA,65,correct angry
52,angry_high,3,759.7375000000001,NA,NA,NA
53,sad_low,5,761.7396000000016,NA,NA,low
53,sad_low,11,762.9536999999993,NA,NA,NA
53,sad_low,12,763.1046999999993,0.13540000000227792,left,incorrect
53,sad_low,6,764.1216999999994,NA,NA,NA
53,sad_low,7,764.2040000000001,0.0708000000007587,left,incorrect
53,sad_low,9,764.9380000000001,NA,-50,wrong sad
53,sad_low,3,766.4541000000015,NA,NA,NA
54,angry_high,5,769.4649000000023,NA,NA,high
54,angry_high,11,770.6866000000016,NA,NA,NA
54,angry_high,12,771.3215,0.6196000000014692,left,correct
54,angry_high,6,772.3375000000001,NA,NA,NA
54,angry_high,7,772.504,0.153600000001461,left,correct
54,angry_high,9,773.1565,NA,54,correct angry
54,angry_high,3,774.671,NA,NA,NA
55,sad_low,5,777.1811999999993,NA,NA,low
55,sad_low,11,778.3876000000015,NA,NA,NA
55,sad_low,12,778.6715,0.2683000000007496,left,incorrect
55,sad_low,6,779.6879000000023,NA,NA,NA
55,sad_low,7,780.1208000000008,0.41959999999778574,left,incorrect
55,sad_low,9,780.504,NA,-50,wrong sad
55,sad_low,3,782.0211999999993,NA,NA,NA
56,angry_high,5,785.0325,NA,NA,high
56,angry_high,11,786.2545,NA,NA,NA
56,angry_high,12,787.4975000000001,1.2186000000015156,right,incorrect
56,angry_high,6,788.5054000000023,NA,NA,NA
56,angry_high,7,788.5709000000023,0.06289999999853535,right,incorrect
56,angry_high,9,789.3215,NA,-50,wrong angry
56,angry_high,3,790.8369000000023,NA,NA,NA
57,angry_high,5,792.849,NA,NA,high
57,angry_high,11,794.038,NA,NA,NA
57,angry_high,12,794.1716000000015,0.12330000000065411,left,correct
57,angry_high,6,795.1885000000001,NA,NA,NA
57,angry_high,7,795.2700000000001,0.07090000000221153,left,correct
57,angry_high,9,796.0054000000023,NA,65,correct angry
57,angry_high,3,797.5201999999992,NA,NA,NA
58,sad_low,5,799.5234000000023,NA,NA,low
58,sad_low,11,800.7213000000008,NA,NA,NA
58,sad_low,12,800.855,0.11819999999920583,right,correct
58,sad_low,6,801.8716999999994,NA,NA,NA
58,sad_low,7,801.921,0.03780000000074324,right,correct
58,sad_low,9,802.6899000000022,NA,69,correct sad
58,sad_low,3,804.2036000000015,NA,NA,NA
59,angry_high,5,806.7081999999994,NA,NA,high
59,angry_high,11,807.9213000000008,NA,NA,NA
59,angry_high,12,808.0708000000008,0.13460000000145556,left,correct
59,angry_high,6,809.0888000000008,NA,NA,NA
59,angry_high,7,809.1701000000015,0.07239999999853808,left,correct
59,angry_high,9,809.9066000000015,NA,65,correct angry
59,angry_high,3,811.4203000000008,NA,NA,NA
60,angry_low,5,813.4300000000001,NA,NA,low
60,angry_low,11,814.6546999999993,NA,NA,NA
60,angry_low,12,814.6711000000015,0.007800000000770524,right,incorrect
60,angry_low,6,815.6883000000008,NA,NA,NA
60,angry_low,7,815.7376000000015,0.038000000000010914,right,incorrect
60,angry_low,9,816.4881000000015,NA,-50,wrong angry
60,angry_low,3,818.0045,NA,NA,NA
61,sad_low,5,820.5159000000023,NA,NA,low
61,sad_low,11,821.7213000000008,NA,NA,NA
61,sad_low,12,822.0218000000008,0.28530000000080236,left,incorrect
61,sad_low,6,823.0386999999993,NA,NA,NA
61,sad_low,7,823.0878000000008,0.038600000001565604,left,incorrect
61,sad_low,9,823.855,NA,-50,wrong sad
61,sad_low,3,825.3711999999992,NA,NA,NA
62,angry_high,5,827.8834000000023,NA,NA,high
62,angry_high,11,829.1046999999993,NA,NA,NA
62,angry_high,12,829.5551999999993,0.43490000000224427,left,correct
62,angry_high,6,830.5711999999993,NA,NA,NA
62,angry_high,7,830.6544000000023,0.07440000000224245,left,correct
62,angry_high,9,831.3733000000008,NA,65,correct angry
62,angry_high,3,832.888,NA,NA,NA
63,sad_low,5,834.8909000000023,NA,NA,low
63,sad_low,11,836.1049000000023,NA,NA,NA
63,sad_low,12,836.1716999999993,0.05810000000155924,right,correct
63,sad_low,6,837.1883000000008,NA,NA,NA
63,sad_low,7,837.2546000000016,0.058300000000713226,right,correct
63,sad_low,9,837.9899000000023,NA,67,correct sad
63,sad_low,3,839.5046999999993,NA,NA,NA
64,sad_high,5,842.5078000000008,NA,NA,high
64,sad_high,11,843.7381999999993,NA,NA,NA
64,sad_high,12,843.8221000000016,0.0678999999985308,left,incorrect
64,sad_high,6,844.8381999999993,NA,NA,NA
64,sad_high,7,844.9045000000001,0.057999999999992724,left,incorrect
64,sad_high,9,845.6384000000023,NA,-50,wrong sad
64,sad_high,3,847.1544000000023,NA,NA,NA
65,sad_low,5,850.1666000000015,NA,NA,low
65,sad_low,11,851.3715000000001,NA,NA,NA
65,sad_low,12,852.0219000000022,0.6476000000014892,left,incorrect
65,sad_low,6,853.0381000000016,NA,NA,NA
65,sad_low,7,853.2045,0.1545999999976857,left,incorrect
65,sad_low,9,853.8553000000007,NA,-50,wrong sad
65,sad_low,3,855.3715000000001,NA,NA,NA
66,angry_high,5,858.3826000000015,NA,NA,high
66,angry_high,11,859.605,NA,NA,NA
66,angry_high,12,860.1220000000001,0.5029999999999291,right,incorrect
66,angry_high,6,861.1389000000023,NA,NA,NA
66,angry_high,7,861.2711999999993,0.12079999999696156,right,incorrect
66,angry_high,9,861.9554000000023,NA,-50,wrong angry
66,angry_high,3,863.4705,NA,NA,NA
67,angry_low,5,866.4849000000023,NA,NA,low
67,angry_low,11,867.7043000000008,NA,NA,NA
67,angry_low,12,868.7391999999993,1.0189000000023043,left,correct
67,angry_low,6,869.7558000000008,NA,NA,NA
67,angry_low,7,869.9048000000008,0.14819999999917854,left,correct
67,angry_low,9,870.5738000000008,NA,56,correct angry
67,angry_low,3,872.0883000000008,NA,NA,NA
68,sad_low,5,874.0911999999993,NA,NA,low
68,sad_low,11,875.3216999999993,NA,NA,NA
68,sad_low,12,875.3546999999993,0.022399999998469866,left,incorrect
68,sad_low,6,876.3556000000016,NA,NA,NA
68,sad_low,7,876.4380000000001,0.07059999999773936,left,incorrect
68,sad_low,9,877.1721999999993,NA,-50,wrong sad
68,sad_low,3,878.6884000000023,NA,NA,NA
69,sad_low,5,880.6989000000023,NA,NA,low
69,sad_low,11,881.9051000000015,NA,NA,NA
69,sad_low,12,882.0221000000015,0.1003999999984444,right,correct
69,sad_low,6,883.0391999999993,NA,NA,NA
69,sad_low,7,883.0881000000015,0.0458999999984826,right,correct
69,sad_low,9,883.8568000000008,NA,69,correct sad
69,sad_low,3,885.3716000000015,NA,NA,NA
70,angry_low,5,887.8816999999993,NA,NA,low
70,angry_low,11,889.1051000000016,NA,NA,NA
70,angry_low,12,889.1389000000023,0.03139999999848442,right,incorrect
70,angry_low,6,890.1555000000001,NA,NA,NA
70,angry_low,7,890.172,0.01530000000070686,right,incorrect
70,angry_low,9,890.9721999999992,NA,-50,wrong angry
70,angry_low,3,892.4884000000022,NA,NA,NA
71,angry_high,5,895.0011999999994,NA,NA,high
71,angry_high,11,896.2219000000023,NA,NA,NA
71,angry_high,12,898.8311999999993,2.5862999999970953,right,incorrect
71,angry_high,6,899.8395,NA,NA,NA
71,angry_high,7,899.8883000000008,0.045900000002234265,right,incorrect
71,angry_high,9,900.6555000000001,NA,-50,wrong angry
71,angry_high,3,902.1716000000015,NA,NA,NA
72,sad_high,5,905.1828000000008,NA,NA,high
72,sad_high,11,906.4051999999994,NA,NA,NA
72,sad_high,12,906.6890000000001,0.2680000000000291,left,incorrect
72,sad_high,6,907.7059000000023,NA,NA,NA
72,sad_high,7,907.7551000000016,0.038699999999266765,left,incorrect
72,sad_high,9,908.5223000000008,NA,-50,wrong sad
72,sad_high,3,910.0384000000023,NA,NA,NA
73,sad_low,5,912.0489000000023,NA,NA,low
73,sad_low,11,913.2719000000022,NA,NA,NA
73,sad_low,12,913.9724000000023,0.6850000000000591,right,correct
73,sad_low,6,914.9893000000008,NA,NA,NA
73,sad_low,7,915.0221999999993,0.019600000001560147,right,correct
73,sad_low,9,915.8068000000007,NA,71,correct sad
73,sad_low,3,917.3218000000007,NA,NA,NA
74,angry_high,5,919.8246999999993,NA,NA,high
74,angry_high,11,921.0551000000015,NA,NA,NA
74,angry_high,12,921.105,0.03960000000154196,left,correct
74,angry_high,6,922.1225000000001,NA,NA,NA
74,angry_high,7,922.205,0.07010000000150285,left,correct
74,angry_high,9,922.9403000000008,NA,65,correct angry
74,angry_high,3,924.4554000000023,NA,NA,NA
75,angry_low,5,926.4578000000008,NA,NA,low
75,angry_low,11,927.6719000000023,NA,NA,NA
75,angry_low,12,928.1718000000008,0.4910999999978003,right,incorrect
75,angry_low,6,929.1891000000015,NA,NA,NA
75,angry_low,7,929.2884000000023,0.09780000000080236,right,incorrect
75,angry_low,9,930.0048000000008,NA,-50,wrong angry
75,angry_low,3,931.5051999999993,NA,NA,NA
76,sad_low,5,934.5153000000008,NA,NA,low
76,sad_low,11,935.7386999999993,NA,NA,NA
76,sad_low,12,935.7551999999993,0.008600000001479202,left,incorrect
76,sad_low,6,936.7726999999993,NA,NA,NA
76,sad_low,7,936.8218000000007,0.048499999999989996,left,incorrect
76,sad_low,9,937.5876999999992,NA,-50,wrong sad
76,sad_low,3,939.1041000000015,NA,NA,NA
77,angry_high,5,941.6004000000023,NA,NA,high
77,angry_high,11,942.8054000000022,NA,NA,NA
77,angry_high,12,944.1556999999993,1.3344000000022334,left,correct
77,angry_high,6,945.1726999999993,NA,NA,NA
77,angry_high,7,945.2048000000008,0.01770000000294658,left,correct
77,angry_high,9,945.9903000000008,NA,71,correct angry
77,angry_high,3,947.5051999999993,NA,NA,NA
78,sad_low,5,949.5089000000023,NA,NA,low
78,sad_low,11,950.7376000000015,NA,NA,NA
78,sad_low,12,952.7886999999993,2.044300000000703,left,incorrect
78,sad_low,6,953.8050000000001,NA,NA,NA
78,sad_low,7,954.1719000000023,0.35490000000220334,left,incorrect
78,sad_low,9,954.6213000000008,NA,-50,wrong sad
78,sad_low,3,956.138,NA,NA,NA
79,sad_low,5,958.633,NA,NA,low
79,sad_low,11,959.8389000000022,NA,NA,NA
79,sad_low,12,961.1061000000016,1.2513000000006969,right,correct
79,sad_low,6,962.1229000000022,NA,NA,NA
79,sad_low,7,962.1719000000023,0.04789999999854899,right,correct
79,sad_low,9,962.9405,NA,69,correct sad
79,sad_low,3,964.4541999999993,NA,NA,NA
80,sad_high,5,967.4754000000023,NA,NA,high
80,sad_high,11,968.6885000000001,NA,NA,NA
80,sad_high,12,968.7228000000008,0.019400000002178786,left,incorrect
80,sad_high,6,969.7396999999993,NA,NA,NA
80,sad_high,7,969.8053000000008,0.056400000002213346,left,incorrect
80,sad_high,9,970.5559000000022,NA,-50,wrong sad
80,sad_high,3,972.072,NA,NA,NA
81,angry_high,5,974.0829000000023,NA,NA,high
81,angry_high,11,975.3041999999994,NA,NA,NA
81,angry_high,12,975.4721999999992,0.15389999999854354,right,incorrect
81,angry_high,6,976.4896000000016,NA,NA,NA
81,angry_high,7,976.5216999999993,0.02219999999920219,right,incorrect
81,angry_high,9,977.3058000000008,NA,-50,wrong angry
81,angry_high,3,978.8223000000008,NA,NA,NA
82,sad_low,5,981.3336999999993,NA,NA,low
82,sad_low,11,982.5548000000008,NA,NA,NA
82,sad_low,12,983.0389000000023,0.46910000000150376,right,correct
82,sad_low,6,984.0564000000023,NA,NA,NA
82,sad_low,7,984.1221000000015,0.057799999996973384,right,correct
82,sad_low,9,984.8741000000016,NA,67,correct sad
82,sad_low,3,986.389,NA,NA,NA
83,angry_high,5,988.3924000000022,NA,NA,high
83,angry_high,11,989.6059000000023,NA,NA,NA
83,angry_high,12,989.6221000000015,0.008800000000746877,left,correct
83,angry_high,6,990.6231999999993,NA,NA,NA
83,angry_high,7,990.7888000000008,0.15350000000000819,left,correct
83,angry_high,9,991.4408000000008,NA,54,correct angry
83,angry_high,3,992.9556999999993,NA,NA,NA
84,angry_high,5,995.9656000000016,NA,NA,high
84,angry_high,11,997.1724000000023,NA,NA,NA
84,angry_high,12,997.2558000000008,0.069599999997763,left,correct
84,angry_high,6,998.2731000000016,NA,NA,NA
84,angry_high,7,998.2893000000008,0.0049999999999954525,left,correct
84,angry_high,9,999.0906000000016,NA,73,correct angry
84,angry_high,3,1000.6056000000016,NA,NA,NA
85,sad_high,5,1003.1081999999992,NA,NA,high
85,sad_high,11,1004.3381999999992,NA,NA,NA
85,sad_high,12,1004.3889999999999,0.04549999999994725,left,incorrect
85,sad_high,6,1005.4054000000021,NA,NA,NA
85,sad_high,7,1005.4721999999992,0.05600000000004002,left,incorrect
85,sad_high,9,1006.2061999999992,NA,-50,wrong sad
85,sad_high,3,1007.7223000000006,NA,NA,NA
86,angry_high,5,1010.7336999999991,NA,NA,high
86,angry_high,11,1011.9391999999991,NA,NA,NA
86,angry_high,12,1011.9896000000015,0.03530000000068867,right,incorrect
86,angry_high,6,1013.0064000000023,NA,NA,NA
86,angry_high,7,1013.1056000000015,0.08719999999925676,right,incorrect
86,angry_high,9,1013.8228000000006,NA,-50,wrong angry
86,angry_high,3,1015.3381999999992,NA,NA,NA
87,angry_high,5,1017.3506999999993,NA,NA,high
87,angry_high,11,1018.5716999999993,NA,NA,NA
87,angry_high,12,1018.5881999999992,0.00940000000218788,left,correct
87,angry_high,6,1019.5894000000021,NA,NA,NA
87,angry_high,7,1019.6061999999993,0.004599999997708437,left,correct
87,angry_high,9,1020.4074000000021,NA,73,correct angry
87,angry_high,3,1021.9214000000022,NA,NA,NA
88,sad_low,5,1024.4248000000007,NA,NA,low
88,sad_low,11,1025.6551000000013,NA,NA,NA
88,sad_low,12,1025.7063000000007,0.041800000000876025,right,correct
88,sad_low,6,1026.7231999999992,NA,NA,NA
88,sad_low,7,1026.8555,0.13160000000129912,right,correct
88,sad_low,9,1027.54,NA,58,correct sad
88,sad_low,3,1029.0391999999993,NA,NA,NA
89,angry_high,5,1031.0418000000006,NA,NA,high
89,angry_high,11,1032.2718000000007,NA,NA,NA
89,angry_high,12,1032.3564000000022,0.07139999999844804,left,correct
89,angry_high,6,1033.373199999999,NA,NA,NA
89,angry_high,7,1033.5056000000013,0.12420000000315667,left,correct
89,angry_high,9,1034.1911000000014,NA,58,correct angry
89,angry_high,3,1035.7059000000022,NA,NA,NA
90,sad_low,5,1038.7178000000006,NA,NA,low
90,sad_low,11,1039.9391999999991,NA,NA,NA
90,sad_low,12,1040.105900000002,0.15190000000211512,right,correct
90,sad_low,6,1041.1226000000015,NA,NA,NA
90,sad_low,7,1041.1891000000014,0.058899999998402564,right,correct
90,sad_low,9,1041.9244000000022,NA,67,correct sad
90,sad_low,3,1043.4394000000023,NA,NA,NA
91,sad_low,5,1045.9421000000013,NA,NA,low
91,sad_low,11,1047.1728000000007,NA,NA,NA
91,sad_low,12,1047.2896999999991,0.10169999999925494,right,correct
91,sad_low,6,1048.3066000000015,NA,NA,NA
91,sad_low,7,1048.3891000000015,0.0718999999985499,right,correct
91,sad_low,9,1049.1245,NA,65,correct sad
91,sad_low,3,1050.639400000002,NA,NA,NA
92,angry_low,5,1052.642900000002,NA,NA,low
92,angry_low,11,1053.8563000000006,NA,NA,NA
92,angry_low,12,1053.9565,0.08670000000302025,right,incorrect
92,angry_low,6,1054.9736000000014,NA,NA,NA
92,angry_low,7,1055.0558000000008,0.08139999999843894,right,incorrect
92,angry_low,9,1055.7896000000014,NA,-50,wrong angry
92,angry_low,3,1057.305900000002,NA,NA,NA
93,angry_high,5,1059.8168000000007,NA,NA,high
93,angry_high,11,1061.0391999999993,NA,NA,NA
93,angry_high,12,1061.055900000002,0.013600000001588342,right,incorrect
93,angry_high,6,1062.0566999999992,NA,NA,NA
93,angry_high,7,1062.0899000000022,0.018499999999903594,right,incorrect
93,angry_high,9,1062.8728000000008,NA,-50,wrong angry
93,angry_high,3,1064.3891999999992,NA,NA,NA
94,angry_low,5,1067.383900000002,NA,NA,low
94,angry_low,11,1068.6061999999993,NA,NA,NA
94,angry_low,12,1069.1733000000006,0.5521000000014737,right,incorrect
94,angry_low,6,1070.1903000000007,NA,NA,NA
94,angry_low,7,1070.2725,0.07099999999991269,right,incorrect
94,angry_low,9,1071.0065,NA,-50,wrong angry
94,angry_low,3,1072.522699999999,NA,NA,NA
95,sad_low,5,1074.5339999999999,NA,NA,low
95,sad_low,11,1075.738900000002,NA,NA,NA
95,sad_low,12,1075.7559000000022,0.009100000001581066,left,incorrect
95,sad_low,6,1076.7569000000021,NA,NA,NA
95,sad_low,7,1076.8391999999992,0.08159999999770662,left,incorrect
95,sad_low,9,1077.5731999999991,NA,-50,wrong sad
95,sad_low,3,1079.0894000000021,NA,NA,NA
96,angry_high,5,1081.5999000000022,NA,NA,high
96,angry_high,11,1082.8229000000022,NA,NA,NA
96,angry_high,12,1082.889400000002,0.05190000000220607,left,correct
96,angry_high,6,1083.9071999999992,NA,NA,NA
96,angry_high,7,1084.0391999999993,0.1313000000006923,left,correct
96,angry_high,9,1084.7241999999992,NA,58,correct angry
96,angry_high,3,1086.2229000000023,NA,NA,NA
97,sad_low,5,1089.2255,NA,NA,low
97,sad_low,11,1090.456400000002,NA,NA,NA
97,sad_low,12,1091.2568000000006,0.7853999999986172,left,incorrect
97,sad_low,6,1092.2736000000014,NA,NA,NA
97,sad_low,7,1092.3893000000007,0.10389999999847532,left,incorrect
97,sad_low,9,1093.0899000000022,NA,-50,wrong sad
97,sad_low,3,1094.6058000000007,NA,NA,NA
98,angry_high,5,1097.1185,NA,NA,high
98,angry_high,11,1098.339699999999,NA,NA,NA
98,angry_high,12,1098.3561999999993,0.008699999999407737,left,correct
98,angry_high,6,1099.3738000000008,NA,NA,NA
98,angry_high,7,1099.4068000000007,0.022300000000768705,left,correct
98,angry_high,9,1100.1913000000006,NA,71,correct angry
98,angry_high,3,1101.7063000000007,NA,NA,NA
99,sad_low,5,1103.7089000000021,NA,NA,low
99,sad_low,11,1104.9399000000021,NA,NA,NA
99,sad_low,12,1105.0735,0.1183999999984735,right,correct
99,sad_low,6,1106.0894000000021,NA,NA,NA
99,sad_low,7,1106.1066000000014,0.004899999998542626,right,correct
99,sad_low,9,1106.8916000000015,NA,73,correct sad
99,sad_low,3,1108.4061999999992,NA,NA,NA
100,sad_high,5,1110.4196999999992,NA,NA,high
100,sad_high,11,1111.6393000000007,NA,NA,NA
100,sad_high,12,1111.6556999999991,0.005499999999983629,left,incorrect
100,sad_high,6,1112.6736000000014,NA,NA,NA
100,sad_high,7,1112.8228000000006,0.1369999999999436,left,incorrect
100,sad_high,9,1113.4901000000013,NA,-50,wrong sad
100,sad_high,3,1115.0061999999991,NA,NA,NA
101,sad_low,5,1117.5168000000008,NA,NA,low
101,sad_low,11,1118.7231000000015,NA,NA,NA
101,sad_low,12,1119.190199999999,0.451099999997723,left,incorrect
101,sad_low,6,1120.2071000000014,NA,NA,NA
101,sad_low,7,1120.3223000000007,0.10389999999847532,left,incorrect
101,sad_low,9,1121.0235,NA,-50,wrong sad
101,sad_low,3,1122.5396999999991,NA,NA,NA
102,angry_high,5,1125.5499000000023,NA,NA,high
102,angry_high,11,1126.7731999999992,NA,NA,NA
102,angry_high,12,1126.8563000000006,0.07620000000292748,left,correct
102,angry_high,6,1127.873900000002,NA,NA,NA
102,angry_high,7,1128.2894999999999,0.4146999999993568,left,correct
102,angry_high,9,1128.6908000000008,NA,23,correct angry
102,angry_high,3,1130.1896999999992,NA,NA,NA
103,sad_high,5,1132.6931999999993,NA,NA,high
103,sad_high,11,1133.9233000000006,NA,NA,NA
103,sad_high,12,1134.3738000000008,0.4390000000000782,left,incorrect
103,sad_high,6,1135.3905,NA,NA,NA
103,sad_high,7,1135.4896000000015,0.0891000000015083,left,incorrect
103,sad_high,9,1136.2061999999992,NA,-50,wrong sad
103,sad_high,3,1137.706400000002,NA,NA,NA
104,angry_high,5,1140.7175,NA,NA,high
104,angry_high,11,1141.9401000000014,NA,NA,NA
104,angry_high,12,1144.9334000000022,2.9691999999993186,right,incorrect
104,angry_high,6,1145.9406000000015,NA,NA,NA
104,angry_high,7,1146.423,0.47039999999833526,left,correct
104,angry_high,9,1146.7583000000006,NA,15,correct angry
104,angry_high,3,1148.2731000000015,NA,NA,NA
105,sad_low,5,1150.7769000000021,NA,NA,low
105,sad_low,11,1152.0068000000006,NA,NA,NA
105,sad_low,12,1152.605900000002,0.5851000000016029,right,correct
105,sad_low,6,1153.6064999999999,NA,NA,NA
105,sad_low,7,1154.1229999999998,0.5161000000016429,right,correct
105,sad_low,9,1154.425,NA,10,correct sad
105,sad_low,3,1155.9398000000008,NA,NA,NA
106,angry_low,5,1158.9416000000015,NA,NA,low
106,angry_low,11,1160.1723000000006,NA,NA,NA
106,angry_low,12,1161.3996999999993,1.2073999999984153,left,correct
106,angry_low,6,1162.4075,NA,NA,NA
106,angry_low,7,1162.7729000000022,0.35210000000142827,left,correct
106,angry_low,9,1163.2239000000022,NA,29,correct angry
106,angry_low,3,1164.74,NA,NA,NA
107,angry_high,5,1167.2261000000015,NA,NA,high
107,angry_high,11,1168.4403000000007,NA,NA,NA
107,angry_high,12,1168.9561999999992,0.5020000000001801,right,incorrect
107,angry_high,6,1169.9575,NA,NA,NA
107,angry_high,7,1170.5721000000015,0.6028000000007978,left,correct
107,angry_high,9,1170.7745,NA,-2,correct angry
107,angry_high,3,1172.2901999999992,NA,NA,NA
108,angry_low,5,1174.2938000000006,NA,NA,low
108,angry_low,11,1175.5228000000006,NA,NA,NA
108,angry_low,12,1175.8561000000013,0.3191000000015265,right,incorrect
108,angry_low,6,1176.8576000000014,NA,NA,NA
108,angry_low,7,1177.5565,0.6913000000008651,right,incorrect
108,angry_low,9,1177.6739000000023,NA,-50,wrong angry
108,angry_low,3,1179.1901000000014,NA,NA,NA
109,sad_low,5,1182.202,NA,NA,low
109,sad_low,11,1183.4236000000014,NA,NA,NA
109,sad_low,12,1183.9741000000015,0.5342000000030112,left,incorrect
109,sad_low,6,1184.9898000000007,NA,NA,NA
109,sad_low,7,1185.1226999999992,0.12010000000145737,left,incorrect
109,sad_low,9,1185.8071999999993,NA,-50,wrong sad
109,sad_low,3,1187.3236000000015,NA,NA,NA
110,angry_low,5,1189.3461000000013,NA,NA,low
110,angry_low,11,1190.5571000000014,NA,NA,NA
110,angry_low,12,1191.3819000000021,0.8019999999999072,right,incorrect
110,angry_low,6,1192.3901000000014,NA,NA,NA
110,angry_low,7,1192.4073000000008,0.005899999998518979,right,incorrect
110,angry_low,9,1193.1906000000015,NA,-50,wrong angry
110,angry_low,3,1194.7068000000006,NA,NA,NA
111,sad_high,5,1197.7188000000008,NA,NA,high
111,sad_high,11,1198.9236999999991,NA,NA,NA
111,sad_high,12,1199.5241999999992,0.5855000000001382,left,incorrect
111,sad_high,6,1200.5401999999992,NA,NA,NA
111,sad_high,7,1200.7056000000014,0.15430000000060318,left,incorrect
111,sad_high,9,1201.3406999999993,NA,-50,wrong sad
111,sad_high,3,1202.8569000000023,NA,NA,NA
112,angry_low,5,1205.3666999999991,NA,NA,low
112,angry_low,11,1206.5728000000006,NA,NA,NA
112,angry_low,12,1206.6906999999992,0.1069999999999709,left,correct
112,angry_low,6,1207.7075,NA,NA,NA
112,angry_low,7,1207.8234000000023,0.10380000000077416,left,correct
112,angry_low,9,1208.5251999999991,NA,60,correct angry
112,angry_low,3,1210.0391999999993,NA,NA,NA
113,sad_high,5,1212.043,NA,NA,high
113,sad_high,11,1213.257199999999,NA,NA,NA
113,sad_high,12,1213.3406999999993,0.06769999999914944,right,correct
113,sad_high,6,1214.358,NA,NA,NA
113,sad_high,7,1214.4076999999993,0.04840000000217515,right,correct
113,sad_high,9,1215.1754000000021,NA,69,correct sad
113,sad_high,3,1216.6895,NA,NA,NA
114,sad_high,5,1218.692900000002,NA,NA,high
114,sad_high,11,1219.9238000000007,NA,NA,NA
114,sad_high,12,1219.940199999999,0.014700000002903835,right,correct
114,sad_high,6,1220.9566999999993,NA,NA,NA
114,sad_high,7,1221.0734000000023,0.11480000000074142,right,correct
114,sad_high,9,1221.7748000000006,NA,60,correct sad
114,sad_high,3,1223.2736000000014,NA,NA,NA
115,angry_low,5,1226.2926999999993,NA,NA,low
115,angry_low,11,1227.523400000002,NA,NA,NA
115,angry_low,12,1227.5401999999992,0.009799999997085251,left,correct
115,angry_low,6,1228.5578000000007,NA,NA,NA
115,angry_low,7,1228.6733000000006,0.11389999999846623,left,correct
115,angry_low,9,1229.3753000000006,NA,61,correct angry
115,angry_low,3,1230.8905,NA,NA,NA
116,sad_high,5,1233.3934000000022,NA,NA,high
116,sad_high,11,1234.6238000000008,NA,NA,NA
116,sad_high,12,1234.6563000000008,0.017200000002958404,right,correct
116,sad_high,6,1235.6579000000022,NA,NA,NA
116,sad_high,7,1235.6739000000023,0.004599999997708437,right,correct
116,sad_high,9,1236.474400000002,NA,73,correct sad
116,sad_high,3,1237.9738000000007,NA,NA,NA
117,angry_low,5,1240.9756999999993,NA,NA,low
117,angry_low,11,1242.2068000000006,NA,NA,NA
117,angry_low,12,1242.2394000000022,0.024499999999989086,left,correct
117,angry_low,6,1243.241,NA,NA,NA
117,angry_low,7,1243.2904000000021,0.04099999999993997,left,correct
117,angry_low,9,1244.0584999999999,NA,69,correct angry
117,angry_low,3,1245.5571999999993,NA,NA,NA
118,sad_high,5,1248.076,NA,NA,high
118,sad_high,11,1249.3073000000006,NA,NA,NA
118,sad_high,12,1249.4404000000022,0.12830000000076325,right,correct
118,sad_high,6,1250.4581999999991,NA,NA,NA
118,sad_high,7,1250.556900000002,0.09770000000298751,right,correct
118,sad_high,9,1251.2751999999991,NA,63,correct sad
118,sad_high,3,1252.7904999999998,NA,NA,NA
119,sad_high,5,1254.793400000002,NA,NA,high
119,sad_high,11,1256.0073000000007,NA,NA,NA
119,sad_high,12,1256.1241999999993,0.11410000000137188,right,correct
119,sad_high,6,1257.1411999999991,NA,NA,NA
119,sad_high,7,1257.206400000002,0.06490000000235341,right,correct
119,sad_high,9,1257.9586000000015,NA,67,correct sad
119,sad_high,3,1259.4739000000022,NA,NA,NA
120,angry_low,5,1261.9868000000006,NA,NA,low
120,angry_low,11,1263.2073000000007,NA,NA,NA
120,angry_low,12,1263.2569999999998,0.04029999999715983,left,correct
120,angry_low,6,1264.257900000002,NA,NA,NA
120,angry_low,7,1264.3403000000008,0.07119999999940774,left,correct
120,angry_low,9,1265.0753000000007,NA,65,correct angry
120,angry_low,3,1266.5739999999998,NA,NA,NA
121,angry_low,5,1269.5839000000021,NA,NA,low
121,angry_low,11,1270.8071999999993,NA,NA,NA
121,angry_low,12,1270.8573000000006,0.048199999999269494,left,correct
121,angry_low,6,1271.8748000000007,NA,NA,NA
121,angry_low,7,1271.9075,0.019100000001344597,left,correct
121,angry_low,9,1272.6924000000022,NA,71,correct angry
121,angry_low,3,1274.2075,NA,NA,NA
122,angry_low,5,1276.209199999999,NA,NA,low
122,angry_low,11,1277.441,NA,NA,NA
122,angry_low,12,1277.4573000000007,0.011300000000801447,left,correct
122,angry_low,6,1278.4746000000014,NA,NA,NA
122,angry_low,7,1278.489900000002,0.014399999998659041,left,correct
122,angry_low,9,1279.2923000000008,NA,73,correct angry
122,angry_low,3,1280.8075,NA,NA,NA
123,sad_high,5,1283.8186999999991,NA,NA,high
123,sad_high,11,1285.0409000000022,NA,NA,NA
123,sad_high,12,1285.1411000000014,0.08519999999907668,right,correct
123,sad_high,6,1286.1581999999992,NA,NA,NA
123,sad_high,7,1286.2904000000021,0.12080000000082691,right,correct
123,sad_high,9,1286.9759000000022,NA,58,correct sad
123,sad_high,3,1288.4906999999992,NA,NA,NA
124,sad_low,5,1290.9933000000008,NA,NA,low
124,sad_low,11,1292.2245,NA,NA,NA
124,sad_low,12,1292.341,0.10139999999842075,left,incorrect
124,sad_low,6,1293.3583000000008,NA,NA,NA
124,sad_low,7,1293.423,0.06049999999981992,left,incorrect
124,sad_low,9,1294.1744999999999,NA,-50,wrong sad
124,sad_low,3,1295.6908000000008,NA,NA,NA
125,angry_low,5,1298.7018000000007,NA,NA,low
125,angry_low,11,1299.9244000000022,NA,NA,NA
125,angry_low,12,1300.0578000000007,0.11950000000001637,right,incorrect
125,angry_low,6,1301.0741000000014,NA,NA,NA
125,angry_low,7,1301.5239000000022,0.4390999999977794,left,correct
125,angry_low,9,1301.8759000000023,NA,19,correct angry
125,angry_low,3,1303.3903000000007,NA,NA,NA
126,angry_low,5,1305.9024000000022,NA,NA,low
126,angry_low,11,1307.1244000000022,NA,NA,NA
126,angry_low,12,1307.4079000000022,0.26930000000061227,left,correct
126,angry_low,6,1308.4251000000015,NA,NA,NA
126,angry_low,7,1308.8405,0.41409999999768843,left,correct
126,angry_low,9,1309.2429000000022,NA,23,correct angry
126,angry_low,3,1310.7575,NA,NA,NA
127,sad_high,5,1313.7696000000014,NA,NA,high
127,sad_high,11,1314.991,NA,NA,NA
127,sad_high,12,1315.1078000000007,0.10209999999779029,right,correct
127,sad_high,6,1316.125,NA,NA,NA
127,sad_high,7,1316.1578000000006,0.019499999999879947,right,correct
127,sad_high,9,1316.9428000000007,NA,71,correct sad
127,sad_high,3,1318.4571000000014,NA,NA,NA
128,angry_high,5,1320.4603000000006,NA,NA,high
128,angry_high,11,1321.6911999999993,NA,NA,NA
128,angry_high,12,1321.7074000000023,0.01319999999918764,right,incorrect
128,angry_high,6,1322.7251000000015,NA,NA,NA
128,angry_high,7,1323.0573000000006,0.33109999999760475,right,incorrect
128,angry_high,9,1323.541400000002,NA,-50,wrong angry
128,angry_high,3,1325.0575,NA,NA,NA
129,sad_high,5,1328.0689000000023,NA,NA,high
129,sad_high,11,1329.2911999999992,NA,NA,NA
129,sad_high,12,1329.3574999999998,0.05180000000063956,left,incorrect
129,sad_high,6,1330.3584999999998,NA,NA,NA
129,sad_high,7,1330.8074000000022,0.4371999999993932,left,incorrect
129,sad_high,9,1331.1738000000007,NA,-50,wrong sad
129,sad_high,3,1332.6743000000006,NA,NA,NA
130,angry_low,5,1335.2131999999992,NA,NA,low
130,angry_low,11,1336.4246000000014,NA,NA,NA
130,angry_low,12,1337.1415,0.7018000000007305,left,correct
130,angry_low,6,1338.1586000000013,NA,NA,NA
130,angry_low,7,1338.2066000000013,0.047699999999395004,left,correct
130,angry_low,9,1338.976400000002,NA,69,correct angry
130,angry_low,3,1340.4906000000015,NA,NA,NA
131,sad_high,5,1342.494400000002,NA,NA,high
131,sad_high,11,1343.724699999999,NA,NA,NA
131,sad_high,12,1343.8741999999993,0.13319999999930587,right,correct
131,sad_high,6,1344.8751000000013,NA,NA,NA
131,sad_high,7,1344.940900000002,0.05900000000019645,right,correct
131,sad_high,9,1345.6926999999991,NA,67,correct sad
131,sad_high,3,1347.2078000000006,NA,NA,NA
132,angry_high,5,1349.7181000000014,NA,NA,high
132,angry_high,11,1350.9411999999993,NA,NA,NA
132,angry_high,12,1351.0415,0.09019999999918582,right,incorrect
132,angry_high,6,1352.0584999999999,NA,NA,NA
132,angry_high,7,1352.1408000000006,0.07030000000077052,right,incorrect
132,angry_high,9,1352.875,NA,-50,wrong angry
132,angry_high,3,1354.3911999999991,NA,NA,NA
133,sad_high,5,1357.402,NA,NA,high
133,sad_high,11,1358.6245,NA,NA,NA
133,sad_high,12,1359.408,0.7691000000013446,right,correct
133,sad_high,6,1360.4254999999998,NA,NA,NA
133,sad_high,7,1361.074199999999,0.6474000000023352,right,correct
133,sad_high,9,1361.2428000000007,NA,-6,correct sad
133,sad_high,3,1362.757900000002,NA,NA,NA
134,angry_low,5,1365.7678000000008,NA,NA,low
134,angry_low,11,1366.9748000000006,NA,NA,NA
134,angry_low,12,1367.3253000000007,0.3356999999994059,left,correct
134,angry_low,6,1368.3421999999991,NA,NA,NA
134,angry_low,7,1368.4076000000014,0.06510000000162108,left,correct
134,angry_low,9,1369.1596999999992,NA,67,correct angry
134,angry_low,3,1370.674,NA,NA,NA
135,sad_high,5,1373.1776999999993,NA,NA,high
135,sad_high,11,1374.4076999999993,NA,NA,NA
135,sad_high,12,1375.0083000000006,0.5842999999968015,right,correct
135,sad_high,6,1376.0246999999993,NA,NA,NA
135,sad_high,7,1376.0901000000015,0.05490000000213513,right,correct
135,sad_high,9,1376.8264000000022,NA,67,correct sad
135,sad_high,3,1378.3411999999992,NA,NA,NA
136,angry_low,5,1380.344199999999,NA,NA,low
136,angry_low,11,1381.5581999999993,NA,NA,NA
136,angry_low,12,1381.574199999999,0.007800000000770524,left,correct
136,angry_low,6,1382.5756999999992,NA,NA,NA
136,angry_low,7,1382.6244000000022,0.04720000000293112,left,correct
136,angry_low,9,1383.3933000000006,NA,69,correct angry
136,angry_low,3,1384.908,NA,NA,NA
137,angry_low,5,1387.9194000000023,NA,NA,low
137,angry_low,11,1389.1415,NA,NA,NA
137,angry_low,12,1389.224400000002,0.06859999999778665,right,incorrect
137,angry_low,6,1390.2255,NA,NA,NA
137,angry_low,7,1390.3244000000022,0.08849999999983993,right,incorrect
137,angry_low,9,1391.0416000000014,NA,-50,wrong angry
137,angry_low,3,1392.5581000000013,NA,NA,NA
138,sad_high,5,1395.0676000000014,NA,NA,high
138,sad_high,11,1396.2748000000006,NA,NA,NA
138,sad_high,12,1396.3583000000008,0.07319999999936044,left,incorrect
138,sad_high,6,1397.3756000000014,NA,NA,NA
138,sad_high,7,1397.4578000000006,0.0705000000000382,left,incorrect
138,sad_high,9,1398.191900000002,NA,-50,wrong sad
138,sad_high,3,1399.7079000000022,NA,NA,NA
139,angry_low,5,1401.7191000000014,NA,NA,low
139,angry_low,11,1402.9416000000015,NA,NA,NA
139,angry_low,12,1404.0418000000006,1.086999999999989,left,correct
139,angry_low,6,1405.0591000000015,NA,NA,NA
139,angry_low,7,1405.6069000000023,0.5361999999990985,left,correct
139,angry_low,9,1405.8763000000006,NA,6,correct angry
139,angry_low,3,1407.3916000000015,NA,NA,NA
140,sad_low,5,1409.916400000002,NA,NA,low
140,sad_low,11,1411.125,NA,NA,NA
140,sad_low,12,1411.1411999999991,0.00769999999920401,left,incorrect
140,sad_low,6,1412.1425,NA,NA,NA
140,sad_low,7,1412.1751000000015,0.019300000000839646,left,incorrect
140,sad_low,9,1412.9575,NA,-50,wrong sad
140,sad_low,3,1414.4581999999991,NA,NA,NA
141,sad_low,5,1417.4684000000022,NA,NA,low
141,sad_low,11,1418.675,NA,NA,NA
141,sad_low,12,1419.407400000002,0.7193000000006577,left,incorrect
141,sad_low,6,1420.4093000000007,NA,NA,NA
141,sad_low,7,1420.7911999999992,0.36969999999928405,left,incorrect
141,sad_low,9,1421.224400000002,NA,-50,wrong sad
141,sad_low,3,1422.7248000000006,NA,NA,NA
142,angry_high,5,1424.7351000000015,NA,NA,high
142,angry_high,11,1425.9418000000007,NA,NA,NA
142,angry_high,12,1425.9581000000014,0.008899999998448038,left,correct
142,angry_high,6,1426.9759000000022,NA,NA,NA
142,angry_high,7,1427.0594000000021,0.07880000000068321,left,correct
142,angry_high,9,1427.7936999999993,NA,65,correct angry
142,angry_high,3,1429.3071999999993,NA,NA,NA
143,sad_low,5,1432.320400000002,NA,NA,low
143,sad_low,11,1433.5249999999999,NA,NA,NA
143,sad_low,12,1433.6906999999992,0.15110000000140644,right,correct
143,sad_low,6,1434.6926999999991,NA,NA,NA
143,sad_low,7,1434.7404999999999,0.04130000000077416,right,correct
143,sad_low,9,1435.5093000000006,NA,69,correct sad
143,sad_low,3,1437.0084000000022,NA,NA,NA
144,angry_high,5,1439.5276000000015,NA,NA,high
144,angry_high,11,1440.7586000000015,NA,NA,NA
144,angry_high,12,1440.9086999999993,0.14110000000141554,left,correct
144,angry_high,6,1441.9258000000007,NA,NA,NA
144,angry_high,7,1441.9576000000013,0.0253999999986263,left,correct
144,angry_high,9,1442.7436000000014,NA,71,correct angry
144,angry_high,3,1444.2585,NA,NA,NA
145,sad_low,5,1446.761,NA,NA,low
145,sad_low,11,1447.9918000000007,NA,NA,NA
145,sad_low,12,1448.0921000000014,0.0853000000006432,right,correct
145,sad_low,6,1449.1093000000008,NA,NA,NA
145,sad_low,7,1449.1914000000022,0.07139999999844804,right,correct
145,sad_low,9,1449.9269000000022,NA,65,correct sad
145,sad_low,3,1451.4406000000015,NA,NA,NA
146,angry_high,5,1453.444,NA,NA,high
146,angry_high,11,1454.6576000000014,NA,NA,NA
146,angry_high,12,1454.792,0.1193000000007487,left,correct
146,angry_high,6,1455.8091999999992,NA,NA,NA
146,angry_high,7,1455.8611000000014,0.03700000000003456,left,correct
146,angry_high,9,1456.6271000000015,NA,68,correct angry
146,angry_high,3,1458.1411999999991,NA,NA,NA
147,sad_low,5,1460.645,NA,NA,low
147,sad_low,11,1461.858699999999,NA,NA,NA
147,sad_low,12,1461.9755,0.10209999999779029,right,correct
147,sad_low,6,1462.9928000000007,NA,NA,NA
147,sad_low,7,1463.0748000000008,0.08169999999927313,right,correct
147,sad_low,9,1463.809699999999,NA,65,correct sad
147,sad_low,3,1465.325199999999,NA,NA,NA
148,angry_high,5,1468.3361999999993,NA,NA,high
148,angry_high,11,1469.5586999999991,NA,NA,NA
148,angry_high,12,1469.7088000000006,0.14110000000141554,left,correct
148,angry_high,6,1470.7261000000015,NA,NA,NA
148,angry_high,7,1470.8416000000013,0.10449999999991633,left,correct
148,angry_high,9,1471.5438000000006,NA,61,correct angry
148,angry_high,3,1473.0574000000022,NA,NA,NA
149,sad_low,5,1475.0609000000022,NA,NA,low
149,sad_low,11,1476.2918000000006,NA,NA,NA
149,sad_low,12,1476.4416000000015,0.1354999999998654,right,correct
149,sad_low,6,1477.442900000002,NA,NA,NA
149,sad_low,7,1477.5083000000006,0.05809999999792126,right,correct
149,sad_low,9,1478.2606000000014,NA,67,correct sad
149,sad_low,3,1479.7751999999991,NA,NA,NA
150,sad_low,5,1482.7891999999993,NA,NA,low
150,sad_low,11,1484.0085,NA,NA,NA
150,sad_low,12,1484.0923000000007,0.0681999999992513,right,correct
150,sad_low,6,1485.1096000000014,NA,NA,NA
150,sad_low,7,1485.1251999999993,0.015000000000100044,right,correct
150,sad_low,9,1485.9271999999992,NA,73,correct sad
150,sad_low,3,1487.4406999999992,NA,NA,NA
151,angry_high,5,1489.9529000000023,NA,NA,high
151,angry_high,11,1491.1754999999998,NA,NA,NA
151,angry_high,12,1491.2085,0.018900000002304296,left,correct
151,angry_high,6,1492.2095,NA,NA,NA
151,angry_high,7,1492.2253000000007,0.008400000002211527,left,correct
151,angry_high,9,1493.027199999999,NA,73,correct angry
151,angry_high,3,1494.542,NA,NA,NA
152,sad_high,5,1496.5445,NA,NA,high
152,sad_high,11,1497.7591000000014,NA,NA,NA
152,sad_high,12,1497.8924000000022,0.13130000000091968,left,incorrect
152,sad_high,6,1498.9095,NA,NA,NA
152,sad_high,7,1498.9753000000007,0.058900000002267916,left,incorrect
152,sad_high,9,1499.7259000000022,NA,-50,wrong sad
152,sad_high,3,1501.2419000000023,NA,NA,NA
153,angry_high,5,1504.252699999999,NA,NA,high
153,angry_high,11,1505.4751999999992,NA,NA,NA
153,angry_high,12,1505.6256999999991,0.13580000000092696,right,incorrect
153,angry_high,6,1506.642900000002,NA,NA,NA
153,angry_high,7,1506.6589000000022,0.005000000000109139,right,incorrect
153,angry_high,9,1507.4593000000007,NA,-50,wrong angry
153,angry_high,3,1508.975400000002,NA,NA,NA
154,sad_high,5,1511.4863000000007,NA,NA,high
154,sad_high,11,1512.6924000000022,NA,NA,NA
154,sad_high,12,1516.4356000000014,3.7223999999985153,left,incorrect
154,sad_high,6,1517.4431000000013,NA,NA,NA
154,sad_high,7,1517.858699999999,0.4153000000007978,right,correct
154,sad_high,9,1518.2608000000007,NA,23,correct sad
154,sad_high,3,1519.7755,NA,NA,NA
155,sad_low,5,1522.779,NA,NA,low
155,sad_low,11,1524.008,NA,NA,NA
155,sad_low,12,1524.4424999999999,0.4202000000029784,left,incorrect
155,sad_low,6,1525.4598000000008,NA,NA,NA
155,sad_low,7,1525.5584999999999,0.08780000000069776,left,incorrect
155,sad_low,9,1526.2759999999998,NA,-50,wrong sad
155,sad_low,3,1527.7921000000015,NA,NA,NA
156,angry_high,5,1529.8029999999999,NA,NA,high
156,angry_high,11,1531.0091999999993,NA,NA,NA
156,angry_high,12,1531.1254000000022,0.10619999999926222,left,correct
156,angry_high,6,1532.1266000000014,NA,NA,NA
156,angry_high,7,1532.4253000000008,0.2868000000007669,left,correct
156,angry_high,9,1532.9441999999992,NA,38,correct angry
156,angry_high,3,1534.4589000000021,NA,NA,NA
157,sad_low,5,1536.4614000000022,NA,NA,low
157,sad_low,11,1537.6924999999999,NA,NA,NA
157,sad_low,12,1537.8424000000023,0.14090000000214786,right,correct
157,sad_low,6,1538.8598000000006,NA,NA,NA
157,sad_low,7,1538.9586999999992,0.08730000000082327,right,correct
157,sad_low,9,1539.6771999999992,NA,63,correct sad
157,sad_low,3,1541.1921000000013,NA,NA,NA
158,angry_high,5,1543.7036999999991,NA,NA,high
158,angry_high,11,1544.9254000000021,NA,NA,NA
158,angry_high,12,1545.0926000000013,0.15260000000148466,left,correct
158,angry_high,6,1546.1098000000006,NA,NA,NA
158,angry_high,7,1546.192,0.08169999999927313,left,correct
158,angry_high,9,1546.9276999999993,NA,65,correct angry
158,angry_high,3,1548.4421000000013,NA,NA,NA
159,sad_low,5,1550.4444000000021,NA,NA,low
159,sad_low,11,1551.6593000000007,NA,NA,NA
159,sad_low,12,1551.7426000000014,0.06849999999985812,right,correct
159,sad_low,6,1552.759900000002,NA,NA,NA
159,sad_low,7,1552.7926000000014,0.01950000000010732,right,correct
159,sad_low,9,1553.5774999999999,NA,71,correct sad
159,sad_low,3,1555.0923000000007,NA,NA,NA
160,angry_high,5,1557.1073000000006,NA,NA,high
160,angry_high,11,1558.3261000000014,NA,NA,NA
160,angry_high,12,1558.5259999999998,0.18480000000090513,left,correct
160,angry_high,6,1559.5433000000007,NA,NA,NA
160,angry_high,7,1559.6754000000021,0.1316000000015265,left,correct
160,angry_high,9,1560.3609999999999,NA,58,correct angry
160,angry_high,3,1561.8756999999991,NA,NA,NA
161,sad_low,5,1564.8783000000008,NA,NA,low
161,sad_low,11,1566.109400000002,NA,NA,NA
161,sad_low,12,1566.2261000000015,0.10449999999991633,right,correct
161,sad_low,6,1567.243,NA,NA,NA
161,sad_low,7,1567.358699999999,0.11540000000218242,right,correct
161,sad_low,9,1568.061,NA,61,correct sad
161,sad_low,3,1569.5753000000007,NA,NA,NA
162,sad_low,5,1572.0878000000007,NA,NA,low
162,sad_low,11,1573.3093000000006,NA,NA,NA
162,sad_low,12,1573.4761000000015,0.16410000000155378,right,correct
162,sad_low,6,1574.4931000000015,NA,NA,NA
162,sad_low,7,1574.5094000000022,0.004800000000614091,right,correct
162,sad_low,9,1575.311,NA,73,correct sad
162,sad_low,3,1576.825900000002,NA,NA,NA
163,angry_high,5,1578.8286000000014,NA,NA,high
163,angry_high,11,1580.0594999999998,NA,NA,NA
163,angry_high,12,1580.1261999999992,0.05099999999993088,left,correct
163,angry_high,6,1581.1433000000006,NA,NA,NA
163,angry_high,7,1581.2079999999999,0.056800000000748696,left,correct
163,angry_high,9,1581.9601000000014,NA,67,correct angry
163,angry_high,3,1583.4756999999993,NA,NA,NA
164,sad_low,5,1585.9696999999992,NA,NA,low
164,sad_low,11,1587.192900000002,NA,NA,NA
164,sad_low,12,1587.3094999999998,0.10080000000061773,right,correct
164,sad_low,6,1588.3261000000014,NA,NA,NA
164,sad_low,7,1588.359400000002,0.01989999999864267,right,correct
164,sad_low,9,1589.1433000000006,NA,71,correct sad
164,sad_low,3,1590.6426000000015,NA,NA,NA
165,sad_low,5,1593.6536999999992,NA,NA,low
165,sad_low,11,1594.8761999999992,NA,NA,NA
165,sad_low,12,1594.9261999999992,0.03550000000018372,right,correct
165,sad_low,6,1595.9426999999991,NA,NA,NA
165,sad_low,7,1596.0256000000015,0.0814000000023043,right,correct
165,sad_low,9,1596.7446999999993,NA,65,correct sad
165,sad_low,3,1598.257900000002,NA,NA,NA
166,angry_low,5,1600.7623000000008,NA,NA,low
166,angry_low,11,1601.9928000000007,NA,NA,NA
166,angry_low,12,1602.0429000000022,0.0340000000001055,right,incorrect
166,angry_low,6,1603.0594999999998,NA,NA,NA
166,angry_low,7,1603.1914000000022,0.1200999999978194,right,incorrect
166,angry_low,9,1603.8764999999999,NA,-50,wrong angry
166,angry_low,3,1605.3925,NA,NA,NA
167,sad_low,5,1608.4026000000015,NA,NA,low
167,sad_low,11,1609.6096999999993,NA,NA,NA
167,sad_low,12,1609.7931000000015,0.1670000000001437,left,incorrect
167,sad_low,6,1610.8093000000006,NA,NA,NA
167,sad_low,7,1611.3758000000007,0.5558999999987009,right,correct
167,sad_low,9,1611.6266999999991,NA,4,correct sad
167,sad_low,3,1613.1256999999991,NA,NA,NA
168,angry_high,5,1615.1281999999992,NA,NA,high
168,angry_high,11,1616.3596999999993,NA,NA,NA
168,angry_high,12,1617.2265,0.8561999999992622,left,correct
168,angry_high,6,1618.243699999999,NA,NA,NA
168,angry_high,7,1618.675699999999,0.4188999999985299,left,correct
168,angry_high,9,1619.0611999999992,NA,21,correct angry
168,angry_high,3,1620.5756999999992,NA,NA,NA
169,sad_low,5,1622.5796000000014,NA,NA,low
169,sad_low,11,1623.809699999999,NA,NA,NA
169,sad_low,12,1623.8599000000022,0.03569999999922402,right,correct
169,sad_low,6,1624.8761999999992,NA,NA,NA
169,sad_low,7,1624.9098000000006,0.02040000000215514,right,correct
169,sad_low,9,1625.6779000000022,NA,71,correct sad
169,sad_low,3,1627.192900000002,NA,NA,NA
170,angry_low,5,1629.716400000002,NA,NA,low
170,angry_low,11,1630.926400000002,NA,NA,NA
170,angry_low,12,1630.9931000000015,0.05199999999990723,right,incorrect
170,angry_low,6,1632.0103000000006,NA,NA,NA
170,angry_low,7,1632.075199999999,0.05689999999867723,right,incorrect
170,angry_low,9,1632.8268000000007,NA,-50,wrong angry
170,angry_low,3,1634.3416999999993,NA,NA,NA
171,sad_high,5,1636.3531000000014,NA,NA,high
171,sad_high,11,1637.5599000000022,NA,NA,NA
171,sad_high,12,1637.7759000000021,0.2073999999984153,right,correct
171,sad_high,6,1638.7771000000014,NA,NA,NA
171,sad_high,7,1639.2759000000021,0.4878999999984899,right,correct
171,sad_high,9,1639.594900000002,NA,13,correct sad
171,sad_high,3,1641.1096000000014,NA,NA,NA
172,angry_low,5,1644.1196000000014,NA,NA,low
172,angry_low,11,1645.3424000000023,NA,NA,NA
172,angry_low,12,1645.3931999999993,0.0488000000007105,left,correct
172,angry_low,6,1646.4105,NA,NA,NA
172,angry_low,7,1646.5093000000006,0.08819999999923311,left,correct
172,angry_low,9,1647.2271000000014,NA,63,correct angry
172,angry_low,3,1648.7261999999992,NA,NA,NA
173,angry_low,5,1651.2446000000014,NA,NA,low
173,angry_low,11,1652.476400000002,NA,NA,NA
173,angry_low,12,1652.6428000000008,0.1582000000030348,left,correct
173,angry_low,6,1653.6605,NA,NA,NA
173,angry_low,7,1653.6918000000007,0.02260000000137552,left,correct
173,angry_low,9,1654.4776000000015,NA,71,correct angry
173,angry_low,3,1655.9761999999992,NA,NA,NA
174,sad_high,5,1657.9946000000014,NA,NA,high
174,sad_high,11,1659.2089000000021,NA,NA,NA
174,sad_high,12,1659.3099000000022,0.08630000000084692,right,correct
174,sad_high,6,1660.3273000000006,NA,NA,NA
174,sad_high,7,1660.4426999999991,0.10519999999928586,right,correct
174,sad_high,9,1661.1448000000007,NA,61,correct sad
174,sad_high,3,1662.6588000000006,NA,NA,NA
175,angry_low,5,1665.1609000000021,NA,NA,low
175,angry_low,11,1666.36,NA,NA,NA
175,angry_low,12,1666.4101999999991,0.03569999999945139,left,correct
175,angry_low,6,1667.4275,NA,NA,NA
175,angry_low,7,1667.5261000000014,0.08600000000001273,left,correct
175,angry_low,9,1668.2451999999992,NA,63,correct angry
175,angry_low,3,1669.7598000000007,NA,NA,NA
176,sad_high,5,1672.7621000000015,NA,NA,high
176,sad_high,11,1673.9766999999993,NA,NA,NA
176,sad_high,12,1674.0934000000022,0.10569999999916035,right,correct
176,sad_high,6,1675.1108000000006,NA,NA,NA
176,sad_high,7,1675.1928000000007,0.07200000000011642,right,correct
176,sad_high,9,1675.9283000000007,NA,65,correct sad
176,sad_high,3,1677.4431000000013,NA,NA,NA
177,sad_high,5,1679.9538000000007,NA,NA,high
177,sad_high,11,1681.1768000000006,NA,NA,NA
177,sad_high,12,1682.0263000000007,0.8454999999999018,left,incorrect
177,sad_high,6,1683.0275,NA,NA,NA
177,sad_high,7,1683.5256000000015,0.4971999999993386,right,correct
177,sad_high,9,1683.8451000000014,NA,13,correct sad
177,sad_high,3,1685.3598000000006,NA,NA,NA
178,angry_low,5,1687.3624000000023,NA,NA,low
178,angry_low,11,1688.5935,NA,NA,NA
178,angry_low,12,1688.6435,0.039699999999356805,left,correct
178,angry_low,6,1689.6606999999992,NA,NA,NA
178,angry_low,7,1689.7429000000022,0.07199999999988904,left,correct
178,angry_low,9,1690.479,NA,65,correct angry
178,angry_low,3,1691.9933000000008,NA,NA,NA
179,sad_high,5,1694.9965,NA,NA,high
179,sad_high,11,1696.2268000000006,NA,NA,NA
179,sad_high,12,1696.243,0.008399999998573549,right,correct
179,sad_high,6,1697.2441999999992,NA,NA,NA
179,sad_high,7,1697.3096000000014,0.06330000000070868,right,correct
179,sad_high,9,1698.0619000000022,NA,67,correct sad
179,sad_high,3,1699.5766999999992,NA,NA,NA
180,sad_high,5,1701.594199999999,NA,NA,high
180,sad_high,11,1702.8101999999992,NA,NA,NA
180,sad_high,12,1702.8935,0.07420000000297478,right,correct
180,sad_high,6,1703.9109999999998,NA,NA,NA
180,sad_high,7,1704.0096000000015,0.09690000000227883,right,correct
180,sad_high,9,1704.7281000000014,NA,63,correct sad
180,sad_high,3,1706.2433000000008,NA,NA,NA
181,angry_high,5,1708.745400000002,NA,NA,high
181,angry_high,11,1709.960199999999,NA,NA,NA
181,angry_high,12,1710.4763000000007,0.5019999999999527,right,incorrect
181,angry_high,6,1711.4779999999998,NA,NA,NA
181,angry_high,7,1711.5931000000014,0.10590000000229338,right,incorrect
181,angry_high,9,1712.2941000000014,NA,-50,wrong angry
181,angry_high,3,1713.81,NA,NA,NA
182,sad_high,5,1715.8213000000007,NA,NA,high
182,sad_high,11,1717.0433000000007,NA,NA,NA
182,sad_high,12,1717.61,0.557199999999284,left,incorrect
182,sad_high,6,1718.6266000000014,NA,NA,NA
182,sad_high,7,1719.0764000000022,0.4488999999985026,right,correct
182,sad_high,9,1719.445400000002,NA,19,correct sad
182,sad_high,3,1720.9601000000014,NA,NA,NA
183,angry_low,5,1723.9706000000015,NA,NA,low
183,angry_low,11,1725.1936000000014,NA,NA,NA
183,angry_low,12,1725.6604000000023,0.4519999999999982,left,correct
183,angry_low,6,1726.6778000000006,NA,NA,NA
183,angry_low,7,1727.0931000000014,0.40300000000002,left,correct
183,angry_low,9,1727.495400000002,NA,23,correct angry
183,angry_low,3,1729.0101999999993,NA,NA,NA
184,angry_low,5,1731.5129000000022,NA,NA,low
184,angry_low,11,1732.7438000000006,NA,NA,NA
184,angry_low,12,1732.7596000000015,0.009200000002920206,left,correct
184,angry_low,6,1733.7608000000007,NA,NA,NA
184,angry_low,7,1733.7931000000015,0.02510000000143009,left,correct
184,angry_low,9,1734.5788000000007,NA,71,correct angry
184,angry_low,3,1736.0934000000022,NA,NA,NA
185,sad_low,5,1738.0969000000023,NA,NA,low
185,sad_low,11,1739.3271000000013,NA,NA,NA
185,sad_low,12,1739.459900000002,0.11909999999784304,left,incorrect
185,sad_low,6,1740.4613000000006,NA,NA,NA
185,sad_low,7,1740.509900000002,0.03779999999710526,left,incorrect
185,sad_low,9,1741.2766000000015,NA,-50,wrong sad
185,sad_low,3,1742.7768000000008,NA,NA,NA
186,angry_low,5,1745.2875,NA,NA,low
186,angry_low,11,1746.4939000000022,NA,NA,NA
186,angry_low,12,1747.0104999999999,0.5060999999975593,left,correct
186,angry_low,6,1748.0264000000022,NA,NA,NA
186,angry_low,7,1748.5766000000015,0.5377999999968779,left,correct
186,angry_low,9,1748.8288000000007,NA,6,correct angry
186,angry_low,3,1750.3436999999992,NA,NA,NA
187,sad_high,5,1753.3466000000014,NA,NA,high
187,sad_high,11,1754.5771000000013,NA,NA,NA
187,sad_high,12,1754.7773000000007,0.19810000000165928,right,correct
187,sad_high,6,1755.7943000000007,NA,NA,NA
187,sad_high,7,1755.8103000000008,0.014699999999265856,right,correct
187,sad_high,9,1756.6119999999999,NA,73,correct sad
187,sad_high,3,1758.1269000000023,NA,NA,NA
188,angry_low,5,1761.1295,NA,NA,low
188,angry_low,11,1762.3439999999998,NA,NA,NA
188,angry_low,12,1762.527199999999,0.16849999999999454,left,correct
188,angry_low,6,1763.5446999999992,NA,NA,NA
188,angry_low,7,1763.6266999999991,0.07840000000214786,left,correct
188,angry_low,9,1764.3613000000007,NA,65,correct angry
188,angry_low,3,1765.8601000000015,NA,NA,NA
189,sad_high,5,1768.3629000000021,NA,NA,high
189,sad_high,11,1769.5939999999998,NA,NA,NA
189,sad_high,12,1769.9106000000015,0.3018999999985681,right,correct
189,sad_high,6,1770.9279999999999,NA,NA,NA
189,sad_high,7,1771.0266000000015,0.08780000000069776,right,correct
189,sad_high,9,1771.7456999999993,NA,63,correct sad
189,sad_high,3,1773.2604000000022,NA,NA,NA
190,angry_low,5,1775.2798000000007,NA,NA,low
190,angry_low,11,1776.5106000000014,NA,NA,NA
190,angry_low,12,1776.5601000000015,0.03519999999934953,left,correct
190,angry_low,6,1777.5616000000014,NA,NA,NA
190,angry_low,7,1777.710199999999,0.14819999999940592,left,correct
190,angry_low,9,1778.379,NA,56,correct angry
190,angry_low,3,1779.8931000000014,NA,NA,NA
191,angry_high,5,1782.3966000000014,NA,NA,high
191,angry_high,11,1783.6108000000006,NA,NA,NA
191,angry_high,12,1783.677400000002,0.051700000002938395,right,incorrect
191,angry_high,6,1784.695,NA,NA,NA
191,angry_high,7,1784.7106000000015,0.0049000000021806045,right,incorrect
191,angry_high,9,1785.511,NA,-50,wrong angry
191,angry_high,3,1787.0271000000014,NA,NA,NA
192,sad_high,5,1790.039,NA,NA,high
192,sad_high,11,1791.2608000000007,NA,NA,NA
192,sad_high,12,1791.2769000000021,0.009500000000116415,left,incorrect
192,sad_high,6,1792.2781999999993,NA,NA,NA
192,sad_high,7,1792.9436000000014,0.6539000000020678,right,correct
192,sad_high,9,1793.0958000000007,NA,-8,correct sad
192,sad_high,3,1794.610400000002,NA,NA,NA
193,angry_low,5,1797.613199999999,NA,NA,low
193,angry_low,11,1798.8443000000007,NA,NA,NA
193,angry_low,12,1798.9109000000021,0.050800000000663204,left,correct
193,angry_low,6,1799.9283000000007,NA,NA,NA
193,angry_low,7,1799.993699999999,0.06039999999848078,left,correct
193,angry_low,9,1800.7458000000006,NA,67,correct angry
193,angry_low,3,1802.2604999999999,NA,NA,NA
194,angry_low,5,1804.2631000000015,NA,NA,low
194,angry_low,11,1805.4936000000014,NA,NA,NA
194,angry_low,12,1805.6109000000022,0.10240000000226246,left,correct
194,angry_low,6,1806.6279000000022,NA,NA,NA
194,angry_low,7,1806.7269000000022,0.0908000000008542,left,correct
194,angry_low,9,1807.4461000000015,NA,63,correct angry
194,angry_low,3,1808.9605,NA,NA,NA
195,angry_low,5,1811.9716999999991,NA,NA,low
195,angry_low,11,1813.1943000000006,NA,NA,NA
195,angry_low,12,1813.2776000000015,0.06730000000084146,left,correct
195,angry_low,6,1814.2941999999991,NA,NA,NA
195,angry_low,7,1814.4269000000022,0.12100000000009459,left,correct
195,angry_low,9,1815.1116000000013,NA,58,correct angry
195,angry_low,3,1816.6106999999993,NA,NA,NA
196,sad_high,5,1819.1289000000022,NA,NA,high
196,sad_high,11,1820.3433000000007,NA,NA,NA
196,sad_high,12,1820.4099000000022,0.05580000000077234,right,correct
196,sad_high,6,1821.4116999999992,NA,NA,NA
196,sad_high,7,1821.5103000000006,0.098200000002862,right,correct
196,sad_high,9,1822.2285,NA,63,correct sad
196,sad_high,3,1823.7271999999991,NA,NA,NA
197,angry_low,5,1825.7461999999991,NA,NA,low
197,angry_low,11,1826.9765,NA,NA,NA
197,angry_low,12,1827.1443000000006,0.15830000000073596,left,correct
197,angry_low,6,1828.1616999999992,NA,NA,NA
197,angry_low,7,1828.243699999999,0.07090000000221153,left,correct
197,angry_low,9,1828.9794000000022,NA,65,correct angry
197,angry_low,3,1830.4941999999992,NA,NA,NA
198,sad_high,5,1833.4968000000006,NA,NA,high
198,sad_high,11,1834.7266999999993,NA,NA,NA
198,sad_high,12,1834.777199999999,0.04259999999771935,right,correct
198,sad_high,6,1835.7785,NA,NA,NA
198,sad_high,7,1835.8938000000007,0.10349999999993997,right,correct
198,sad_high,9,1836.5961000000013,NA,61,correct sad
198,sad_high,3,1838.1106000000013,NA,NA,NA
199,sad_high,5,1840.6141000000014,NA,NA,high
199,sad_high,11,1841.8276000000014,NA,NA,NA
199,sad_high,12,1841.8606999999993,0.0216999999993277,right,correct
199,sad_high,6,1842.8786000000014,NA,NA,NA
199,sad_high,7,1842.892900000002,0.007800000000770524,right,correct
199,sad_high,9,1843.695699999999,NA,73,correct sad
199,sad_high,3,1845.2106999999992,NA,NA,NA