trial,trial_type,event_type,absolute_time,response_time,response,result
NA,NA,2,0.000199999999253464,NA,NA,NA
0,INSTRUCTIONS,8,0.012100000001488809,NA,NA,NA
NA,RATE_FACES,8,221.60569999999927,NA,NA,NA
0,RATE_FACES,4,221.63490000000223,,,
0,RATE_FACES,7,223.37599999999998,1.7316000000014924,right,correct
0,RATE_FACES,9,223.68840000000222,NA,NA,NA
1,RATE_FACES,4,224.7001000000015,,,
1,RATE_FACES,7,225.5555,0.852700000002983,left,correct
1,RATE_FACES,9,225.85530000000074,NA,NA,NA
2,RATE_FACES,4,226.88080000000076,,,
2,RATE_FACES,7,228.42149999999998,1.5296000000014942,left,incorrect
2,RATE_FACES,7,230.17149999999998,1.7244999999999777,right,correct
3,RATE_FACES,4,231.49180000000075,,,
3,RATE_FACES,7,232.27019999999925,0.7698000000007141,right,correct
3,RATE_FACES,9,232.586,NA,NA,NA
4,RATE_FACES,4,233.60769999999923,,,
4,RATE_FACES,7,234.85230000000075,1.2379000000022415,left,correct
4,RATE_FACES,9,235.16869999999926,NA,NA,NA
5,RATE_FACES,4,236.19080000000076,,,
5,RATE_FACES,7,237.1351000000015,0.9389999999999645,right,correct
5,RATE_FACES,9,237.43469999999922,NA,NA,NA
6,RATE_FACES,4,238.45569999999924,,,
6,RATE_FACES,7,239.33380000000074,0.8676000000014596,left,correct
6,RATE_FACES,9,239.6345,NA,NA,NA
7,RATE_FACES,4,240.65530000000075,,,
7,RATE_FACES,7,241.5505,0.8818000000007373,right,correct
7,RATE_FACES,9,241.86590000000223,NA,NA,NA
8,RATE_FACES,4,242.8876000000015,,,
8,RATE_FACES,7,245.11569999999926,2.2170999999977425,right,incorrect
8,RATE_FACES,7,245.71560000000147,0.5731999999993036,left,correct
9,RATE_FACES,4,247.0444000000022,,,
9,RATE_FACES,7,249.349,2.3027999999970348,left,correct
9,RATE_FACES,9,249.66340000000224,NA,NA,NA
10,RATE_FACES,4,250.67340000000223,,,
10,RATE_FACES,7,251.93010000000146,1.2532999999970116,left,correct
10,RATE_FACES,9,252.23010000000147,NA,NA,NA
11,RATE_FACES,4,253.25419999999923,,,
11,RATE_FACES,7,254.33190000000224,1.066500000000019,right,correct
11,RATE_FACES,9,254.6454000000022,NA,NA,NA
12,RATE_FACES,4,255.65430000000072,,,
12,RATE_FACES,7,256.6305,0.9693999999985294,right,incorrect
12,RATE_FACES,7,257.79619999999926,1.1407999999970002,left,correct
13,RATE_FACES,4,259.1345,,,
13,RATE_FACES,7,260.0625,0.9155000000000086,right,correct
13,RATE_FACES,9,260.3771999999992,NA,NA,NA
14,RATE_FACES,4,261.38849999999996,,,
14,RATE_FACES,7,262.74399999999997,1.3450000000000273,right,correct
14,RATE_FACES,9,263.05919999999924,NA,NA,NA
15,RATE_FACES,4,264.06830000000076,,,
15,RATE_FACES,7,264.8594000000022,0.7856999999992809,right,correct
15,RATE_FACES,9,265.17540000000224,NA,NA,NA
16,RATE_FACES,4,266.20130000000074,,,
16,RATE_FACES,7,266.97580000000073,0.7625999999977466,left,correct
16,RATE_FACES,9,267.2754000000022,NA,NA,NA
17,RATE_FACES,4,268.30469999999923,,,
17,RATE_FACES,7,269.3751000000015,1.0623000000007892,right,correct
17,RATE_FACES,9,269.67490000000225,NA,NA,NA
18,RATE_FACES,4,270.70380000000074,,,
18,RATE_FACES,7,271.7409000000022,1.0298000000007619,left,correct
18,RATE_FACES,9,272.04030000000074,NA,NA,NA
19,RATE_FACES,4,273.0715,,,
19,RATE_FACES,7,273.80680000000075,0.7321000000014806,right,correct
19,RATE_FACES,9,274.1061000000015,NA,NA,NA
20,RATE_FACES,4,275.1144000000022,,,
20,RATE_FACES,7,276.1063000000007,0.9900000000000091,left,correct
20,RATE_FACES,9,276.40590000000225,NA,NA,NA
21,RATE_FACES,4,277.4328000000007,,,
21,RATE_FACES,7,278.5555,1.1096999999992931,left,correct
21,RATE_FACES,9,278.871,NA,NA,NA
22,RATE_FACES,4,279.89769999999925,,,
22,RATE_FACES,7,280.9044000000022,1.0051999999992631,left,correct
22,RATE_FACES,9,281.2204000000022,NA,NA,NA
23,RATE_FACES,4,282.2324000000022,,,
23,RATE_FACES,7,283.70469999999926,1.4659000000021933,left,incorrect
23,RATE_FACES,7,284.7041999999993,0.9798000000007505,right,correct
0,PRACTICE,8,286.0501999999992,NA,NA,NA
NA,PRACTICE,8,299.67819999999926,NA,NA,NA
NA,PRACTICE,3,299.69490000000224,NA,NA,NA
0,angry_high,5,302.6853000000007,NA,NA,high
0,angry_high,11,303.914,NA,NA,NA
0,angry_high,12,305.746,1.804399999998509,right,incorrect
0,angry_high,6,306.78390000000223,NA,NA,NA
0,angry_high,9,307.7001000000015,NA,-200,too slow angry
NA,angry_high,3,309.17930000000075,NA,NA,NA
1,sad_high,5,311.204,NA,NA,high
1,sad_high,11,312.394,NA,NA,NA
1,sad_high,12,313.0605,0.6617999999970152,right,correct
1,sad_high,6,314.08469999999926,NA,NA,NA
1,sad_high,9,314.9931000000015,NA,-200,too slow sad
NA,sad_high,3,316.49369999999925,NA,NA,NA
2,angry_low,5,319.5154000000022,NA,NA,low
2,angry_low,11,320.724,NA,NA,NA
2,angry_low,12,321.3246000000015,0.5956999999992263,left,correct
2,angry_low,6,322.34610000000146,NA,NA,NA
2,angry_low,9,323.25690000000225,NA,-200,too slow angry
NA,angry_low,3,324.759,NA,NA,NA
3,sad_low,5,326.7843000000007,NA,NA,low
3,sad_low,11,327.9891000000015,NA,NA,NA
3,sad_low,12,328.95569999999924,0.9513999999985572,right,correct
3,sad_low,6,329.97830000000073,NA,NA,NA
3,sad_low,9,330.8878000000007,NA,-200,too slow sad
NA,sad_low,3,332.3886000000015,NA,NA,NA
0,MAIN,8,335.41540000000225,NA,NA,NA
NA,MAIN,8,358.29540000000225,NA,NA,NA
NA,MAIN,3,358.29699999999997,NA,NA,NA
0,angry_low,5,361.2489000000022,NA,NA,low
0,angry_low,11,362.47769999999923,NA,NA,NA
0,angry_low,12,363.2625,0.7740999999977589,right,incorrect
0,angry_low,6,364.28469999999925,NA,NA,NA
0,angry_low,7,364.7821000000015,0.4956999999992604,right,incorrect
0,angry_low,9,365.09480000000076,NA,-50,wrong angry
0,angry_low,3,366.61069999999927,NA,NA,NA
1,sad_high,5,368.6396000000015,NA,NA,high
1,sad_high,11,369.8429000000022,NA,NA,NA
1,sad_high,12,370.65969999999925,0.7998000000007437,right,correct
1,sad_high,6,371.6756000000015,NA,NA,NA
1,sad_high,7,372.33110000000147,0.6535000000000082,right,correct
1,sad_high,9,372.5086000000015,NA,-7,correct sad
1,sad_high,3,374.0073000000007,NA,NA,NA
2,angry_low,5,377.02549999999997,NA,NA,low
2,angry_low,11,378.22310000000147,NA,NA,NA
2,angry_low,12,378.6398000000007,0.40409999999775437,right,incorrect
2,angry_low,6,379.65640000000224,NA,NA,NA
2,angry_low,7,380.3089000000022,0.6508999999985008,right,incorrect
2,angry_low,9,380.4721000000015,NA,-50,wrong angry
2,angry_low,3,381.97230000000076,NA,NA,NA
3,sad_high,5,385.0115,NA,NA,high
3,sad_high,11,386.21999999999997,NA,NA,NA
3,sad_high,12,386.80460000000147,0.5717999999969834,right,correct
3,sad_high,6,387.8204000000022,NA,NA,NA
3,sad_high,7,388.414,0.5919000000022265,right,correct
3,sad_high,9,388.6396000000015,NA,1,correct sad
3,sad_high,3,390.152,NA,NA,NA
4,sad_high,5,392.15840000000225,NA,NA,high
4,sad_high,11,393.38490000000223,NA,NA,NA
4,sad_high,12,393.58549999999997,0.19569999999924903,right,correct
4,sad_high,6,394.6019000000022,NA,NA,NA
4,sad_high,7,394.9749000000022,0.3711999999992486,right,correct
4,sad_high,9,395.4205,NA,28,correct sad
4,sad_high,3,396.9336000000015,NA,NA,NA
5,angry_low,5,399.93680000000074,NA,NA,low
5,angry_low,11,401.16590000000224,NA,NA,NA
5,angry_low,12,401.29930000000076,0.12380000000075597,left,correct
5,angry_low,6,402.3155,NA,NA,NA
5,angry_low,7,402.75210000000146,0.4343000000007464,left,correct
5,angry_low,9,403.118,NA,21,correct angry
5,angry_low,3,404.63119999999924,NA,NA,NA
6,sad_high,5,407.13440000000224,NA,NA,high
6,sad_high,11,408.36340000000223,NA,NA,NA
6,sad_high,12,409.2805,0.902400000002217,right,correct
6,sad_high,6,410.29669999999925,NA,NA,NA
6,sad_high,7,410.68319999999926,0.3851000000015006,right,correct
6,sad_high,9,411.1158000000007,NA,27,correct sad
6,sad_high,3,412.6159000000022,NA,NA,NA
7,angry_low,5,415.6336000000015,NA,NA,low
7,angry_low,11,416.8619000000022,NA,NA,NA
7,angry_low,12,416.9946999999992,0.12119999999930542,left,correct
7,angry_low,6,418.0106000000015,NA,NA,NA
7,angry_low,7,418.25069999999926,0.23809999999775755,left,correct
7,angry_low,9,418.8295,NA,45,correct angry
7,angry_low,3,420.32969999999926,NA,NA,NA
8,sad_high,5,422.34640000000223,NA,NA,high
8,sad_high,11,423.57569999999924,NA,NA,NA
8,sad_high,12,423.72540000000225,0.14450000000005048,right,correct
8,sad_high,6,424.74210000000147,NA,NA,NA
8,sad_high,9,425.5585,NA,-200,too slow sad
NA,sad_high,3,427.05819999999926,NA,NA,NA
9,sad_high,5,429.58080000000075,NA,NA,high
9,sad_high,11,430.79040000000225,NA,NA,NA
9,sad_high,12,431.00680000000074,0.20099999999996498,right,correct
9,sad_high,6,432.02840000000225,NA,NA,NA
9,sad_high,7,432.54790000000224,0.5154999999999745,right,correct
9,sad_high,9,432.8415,NA,10,correct sad
9,sad_high,3,434.35519999999923,NA,NA,NA
10,angry_low,5,436.88969999999927,NA,NA,low
10,angry_low,11,438.0709000000022,NA,NA,NA
10,angry_low,12,438.23790000000224,0.16140000000223154,left,correct
10,angry_low,6,439.2539000000022,NA,NA,NA
10,angry_low,7,439.5438000000007,0.2876999999992904,left,correct
10,angry_low,9,440.07319999999925,NA,39,correct angry
10,angry_low,3,441.5871000000015,NA,NA,NA
11,angry_low,5,444.606,NA,NA,low
11,angry_low,11,445.8189000000022,NA,NA,NA
11,angry_low,12,445.95190000000224,0.125,left,correct
11,angry_low,6,446.9699000000022,NA,NA,NA
11,angry_low,7,447.17669999999924,0.20489999999853126,left,correct
11,angry_low,9,447.77069999999924,NA,49,correct angry
11,angry_low,3,449.28390000000223,NA,NA,NA
12,angry_low,5,451.7866000000015,NA,NA,low
12,angry_low,11,453.0156000000015,NA,NA,NA
12,angry_low,12,453.2004000000022,0.17060000000145692,left,correct
12,angry_low,6,454.2161999999992,NA,NA,NA
12,angry_low,7,454.48540000000224,0.2681000000015388,left,correct
12,angry_low,9,455.03560000000147,NA,41,correct angry
12,angry_low,3,456.54819999999927,NA,NA,NA
13,sad_high,5,458.5525,NA,NA,high
13,sad_high,11,459.78,NA,NA,NA
13,sad_high,12,459.9813000000007,0.19249999999999545,right,correct
13,sad_high,6,460.99740000000224,NA,NA,NA
13,sad_high,7,461.2845,0.285799999996982,right,correct
13,sad_high,9,461.8154000000022,NA,39,correct sad
13,sad_high,3,463.3296000000015,NA,NA,NA
14,sad_low,5,466.3343000000007,NA,NA,low
14,sad_low,11,467.56169999999923,NA,NA,NA
14,sad_low,12,469.0438000000007,1.4511000000014747,right,correct
14,sad_low,6,470.0446000000015,NA,NA,NA
14,sad_low,7,470.21419999999927,0.16800000000000637,right,correct
14,sad_low,9,470.863,NA,54,correct sad
14,sad_low,3,472.37669999999923,NA,NA,NA
15,angry_low,5,474.89530000000076,NA,NA,low
15,angry_low,11,476.10860000000145,NA,NA,NA
15,angry_low,12,476.2429000000022,0.12380000000075597,right,incorrect
15,angry_low,6,477.2588000000007,NA,NA,NA
15,angry_low,7,477.49819999999926,0.2371999999993477,right,incorrect
15,angry_low,9,478.0748000000007,NA,-50,wrong angry
15,angry_low,3,479.59099999999995,NA,NA,NA
16,angry_low,5,481.61230000000074,NA,NA,low
16,angry_low,11,482.8235,NA,NA,NA
16,angry_low,12,483.1406000000015,0.30349999999998545,left,correct
16,angry_low,6,484.1573000000007,NA,NA,NA
16,angry_low,7,484.6246000000015,0.4648999999984653,left,correct
16,angry_low,9,484.9753000000007,NA,17,correct angry
16,angry_low,3,486.4888000000007,NA,NA,NA
17,sad_high,5,489.01660000000146,NA,NA,high
17,sad_high,11,490.2211000000015,NA,NA,NA
17,sad_high,12,490.7379000000022,0.5080000000000382,right,correct
17,sad_high,6,491.75449999999995,NA,NA,NA
17,sad_high,7,492.3393000000007,0.583400000002257,right,correct
17,sad_high,9,492.5731000000015,NA,2,correct sad
17,sad_high,3,494.08599999999996,NA,NA,NA
18,angry_high,5,496.08919999999927,NA,NA,high
18,angry_high,11,497.3018000000007,NA,NA,NA
18,angry_high,12,497.5201000000015,0.21009999999773754,right,incorrect
18,angry_high,6,498.5351000000015,NA,NA,NA
18,angry_high,7,499.0544000000022,0.5178000000007614,right,incorrect
18,angry_high,9,499.35180000000076,NA,-50,wrong angry
18,angry_high,3,500.8521999999993,NA,NA,NA
19,sad_high,5,503.39310000000154,NA,NA,high
19,sad_high,11,504.59999999999997,NA,NA,NA
19,sad_high,12,505.2329000000022,0.6190000000000282,left,incorrect
19,sad_high,6,506.24949999999995,NA,NA,NA
19,sad_high,7,506.7408000000008,0.48900000000003274,left,incorrect
19,sad_high,9,507.04980000000074,NA,-50,wrong sad
19,sad_high,3,508.565,NA,NA,NA
20,angry_low,5,511.6043000000007,NA,NA,low
20,angry_low,11,512.7971999999992,NA,NA,NA
20,angry_low,12,513.0474999999999,0.24240000000224882,right,incorrect
20,angry_low,6,514.0644000000021,NA,NA,NA
20,angry_low,7,514.5021000000014,0.43569999999931497,left,correct
20,angry_low,9,514.8823000000007,NA,20,correct angry
20,angry_low,3,516.3963000000007,NA,NA,NA
21,sad_high,5,518.3986000000015,NA,NA,high
21,sad_high,11,519.6116999999992,NA,NA,NA
21,sad_high,12,519.7629000000022,0.13840000000220698,left,incorrect
21,sad_high,6,520.7788000000007,NA,NA,NA
21,sad_high,7,521.3164999999999,0.5359999999999445,left,incorrect
21,sad_high,9,521.5949999999999,NA,-50,wrong sad
21,sad_high,3,523.1101999999992,NA,NA,NA
22,angry_high,5,526.1334000000022,NA,NA,high
22,angry_high,11,527.3259999999999,NA,NA,NA
22,angry_high,12,527.8751999999992,0.5363999999984799,right,incorrect
22,angry_high,6,528.8921000000014,NA,NA,NA
22,angry_high,7,529.6111999999991,0.7173999999985199,left,correct
22,angry_high,9,529.7101999999992,NA,-15,correct angry
22,angry_high,3,531.2243000000007,NA,NA,NA
23,sad_high,5,533.7284999999999,NA,NA,high
23,sad_high,11,534.9561999999992,NA,NA,NA
23,sad_high,12,535.6063000000007,0.6393000000007305,right,correct
23,sad_high,6,536.6231000000014,NA,NA,NA
23,sad_high,7,537.1311999999992,0.5058000000007041,right,correct
23,sad_high,9,537.4411000000014,NA,12,correct sad
23,sad_high,3,538.9543000000007,NA,NA,NA
24,angry_low,5,540.9591999999992,NA,NA,low
24,angry_low,11,542.1706999999992,NA,NA,NA
24,angry_low,12,542.5041999999992,0.3299000000022261,left,correct
24,angry_low,6,543.5208000000007,NA,NA,NA
24,angry_low,7,543.6724000000022,0.15019999999924494,left,correct
24,angry_low,9,544.3391999999992,NA,56,correct angry
24,angry_low,3,545.8524000000021,NA,NA,NA
25,sad_high,5,548.3556000000015,NA,NA,high
25,sad_high,11,549.5839000000021,NA,NA,NA
25,sad_high,12,549.8016999999992,0.20269999999925403,right,correct
25,sad_high,6,550.8174999999999,NA,NA,NA
25,sad_high,7,551.3366000000015,0.5178000000007614,right,correct
25,sad_high,9,551.6354000000022,NA,10,correct sad
25,sad_high,3,553.1499000000022,NA,NA,NA
26,angry_low,5,556.1529999999999,NA,NA,low
26,angry_low,11,557.3811999999992,NA,NA,NA
26,angry_low,12,557.7816000000014,0.3893000000007305,left,correct
26,angry_low,6,558.7984000000022,NA,NA,NA
26,angry_low,7,559.2689000000022,0.4691999999992049,left,correct
26,angry_low,9,559.5998000000006,NA,16,correct angry
26,angry_low,3,561.1141999999992,NA,NA,NA
27,angry_low,5,563.1174000000021,NA,NA,low
27,angry_low,11,564.3459000000022,NA,NA,NA
27,angry_low,12,565.8294999999999,1.4735000000000582,left,correct
27,angry_low,6,566.8458000000007,NA,NA,NA
27,angry_low,7,567.1293000000006,0.28089999999849624,left,correct
27,angry_low,9,567.6636000000015,NA,40,correct angry
27,angry_low,3,569.1771000000015,NA,NA,NA
28,sad_high,5,572.1798000000007,NA,NA,high
28,sad_high,11,573.3929000000022,NA,NA,NA
28,sad_high,12,573.9768000000007,0.5689000000022588,left,incorrect
28,sad_high,6,574.9921999999992,NA,NA,NA
28,sad_high,7,575.4793000000006,0.48540000000218697,right,correct
28,sad_high,9,575.8111000000014,NA,14,correct sad
28,sad_high,3,577.324,NA,NA,NA
29,angry_low,5,579.3289000000021,NA,NA,low
29,angry_low,11,580.5401999999992,NA,NA,NA
29,angry_low,12,580.7734999999999,0.21919999999920492,left,correct
29,angry_low,6,581.7916999999992,NA,NA,NA
29,angry_low,7,582.2934999999999,0.5004999999999882,left,correct
29,angry_low,9,582.5924000000022,NA,12,correct angry
29,angry_low,3,584.1049999999999,NA,NA,NA
30,sad_low,5,587.1455,NA,NA,low
30,sad_low,11,588.3211000000015,NA,NA,NA
30,sad_low,12,588.6038000000007,0.27689999999847714,left,incorrect
30,sad_low,6,589.6214000000022,NA,NA,NA
30,sad_low,7,590.2753000000007,0.6522999999970125,right,correct
30,sad_low,9,590.4388000000007,NA,-7,correct sad
30,sad_low,3,591.9529000000022,NA,NA,NA
31,sad_low,5,594.4554999999999,NA,NA,low
31,sad_low,11,595.6849000000021,NA,NA,NA
31,sad_low,12,595.7851000000014,0.09269999999924039,right,correct
31,sad_low,6,596.8011000000014,NA,NA,NA
31,sad_low,7,597.223,0.42000000000007276,right,correct
31,sad_low,9,597.6198000000007,NA,22,correct sad
31,sad_low,3,599.1334000000022,NA,NA,NA
32,angry_high,5,602.1378000000007,NA,NA,high
32,angry_high,11,603.3486000000014,NA,NA,NA
32,angry_high,12,603.6821000000015,0.3212999999969952,left,correct
32,angry_high,6,604.6986000000014,NA,NA,NA
32,angry_high,7,605.0169000000021,0.31719999999927495,left,correct
32,angry_high,9,605.5166999999992,NA,35,correct angry
32,angry_high,3,607.0305,NA,NA,NA
33,sad_low,5,610.0341999999991,NA,NA,low
33,sad_low,11,611.2621999999992,NA,NA,NA
33,sad_low,12,611.6803000000007,0.40219999999919764,right,correct
33,sad_low,6,612.6964999999999,NA,NA,NA
33,sad_low,7,613.1974000000022,0.4996999999992795,right,correct
33,sad_low,9,613.5138000000006,NA,12,correct sad
33,sad_low,3,615.0276000000014,NA,NA,NA
34,angry_high,5,617.5316000000014,NA,NA,high
34,angry_high,11,618.7606999999992,NA,NA,NA
34,angry_high,12,619.1101000000015,0.3414000000021815,left,correct
34,angry_high,6,620.1266999999992,NA,NA,NA
34,angry_high,7,620.7289000000022,0.6005000000000109,right,incorrect
34,angry_high,9,620.9424999999999,NA,-50,wrong angry
34,angry_high,3,622.4581999999992,NA,NA,NA
35,sad_low,5,624.4634000000021,NA,NA,low
35,sad_low,11,625.6908000000006,NA,NA,NA
35,sad_low,12,626.2076000000014,0.5066000000015265,left,incorrect
35,sad_low,6,627.2244999999999,NA,NA,NA
35,sad_low,7,627.8629000000021,0.6359999999999673,right,correct
35,sad_low,9,628.0416000000014,NA,-5,correct sad
35,sad_low,3,629.5561999999992,NA,NA,NA
36,angry_high,5,632.5591999999992,NA,NA,high
36,angry_high,11,633.7886000000015,NA,NA,NA
36,angry_high,12,634.155,0.361599999997793,left,correct
36,angry_high,6,635.1714000000022,NA,NA,NA
36,angry_high,7,635.7234000000021,0.5501999999992222,left,correct
36,angry_high,9,635.9739000000021,NA,6,correct angry
36,angry_high,3,637.4863000000007,NA,NA,NA
37,sad_low,5,639.4911999999991,NA,NA,low
37,sad_low,11,640.703,NA,NA,NA
37,sad_low,12,641.0696000000014,0.3563999999984162,right,correct
37,sad_low,6,642.0859000000022,NA,NA,NA
37,sad_low,7,642.4896999999992,0.4014999999999418,right,correct
37,sad_low,9,642.9046999999991,NA,25,correct sad
37,sad_low,3,644.4176000000015,NA,NA,NA
38,angry_high,5,646.9366999999992,NA,NA,high
38,angry_high,11,648.1331000000014,NA,NA,NA
38,angry_high,12,648.4831999999992,0.3414000000021815,left,correct
38,angry_high,6,649.5003000000007,NA,NA,NA
38,angry_high,7,649.8859000000022,0.3838000000007469,left,correct
38,angry_high,9,650.3178000000007,NA,27,correct angry
38,angry_high,3,651.8314999999999,NA,NA,NA
39,sad_low,5,653.8349000000022,NA,NA,low
39,sad_low,11,655.0641999999992,NA,NA,NA
39,sad_low,12,655.1971999999992,0.12010000000157106,right,correct
39,sad_low,6,656.2139999999999,NA,NA,NA
39,sad_low,7,656.6179999999999,0.4019000000022288,right,correct
39,sad_low,9,657.0323000000006,NA,25,correct sad
39,sad_low,3,658.5461000000014,NA,NA,NA
40,sad_low,5,661.5961000000015,NA,NA,low
40,sad_low,11,662.7946999999992,NA,NA,NA
40,sad_low,12,663.0944999999999,0.292199999999184,right,correct
40,sad_low,6,664.1116000000014,NA,NA,NA
40,sad_low,7,664.5806999999992,0.4678000000006932,right,correct
40,sad_low,9,664.9294000000021,NA,16,correct sad
40,sad_low,3,666.4434000000022,NA,NA,NA
41,angry_high,5,668.4469000000022,NA,NA,high
41,angry_high,11,669.6751999999992,NA,NA,NA
41,angry_high,12,669.8928000000006,0.20789999999851716,left,correct
41,angry_high,6,670.9086999999992,NA,NA,NA
41,angry_high,7,671.2091999999992,0.29899999999997817,left,correct
41,angry_high,9,671.7109999999999,NA,37,correct angry
41,angry_high,3,673.2241000000014,NA,NA,NA
42,sad_high,5,675.7279000000021,NA,NA,high
42,sad_high,11,676.9564000000022,NA,NA,NA
42,sad_high,12,677.4068000000007,0.44680000000073505,left,incorrect
42,sad_high,6,678.4229999999999,NA,NA,NA
42,sad_high,7,678.6774999999999,0.2529000000022279,left,incorrect
42,sad_high,9,679.2236000000014,NA,-50,wrong sad
42,sad_high,3,680.7383000000007,NA,NA,NA
43,angry_high,5,682.7639000000022,NA,NA,high
43,angry_high,11,683.9546999999992,NA,NA,NA
43,angry_high,12,684.4708000000007,0.5021999999992204,right,incorrect
43,angry_high,6,685.4874000000021,NA,NA,NA
43,angry_high,7,686.0886999999992,0.6000000000000227,left,correct
43,angry_high,9,686.3054999999999,NA,0,correct angry
43,angry_high,3,687.8038000000007,NA,NA,NA
44,sad_high,5,690.3231000000014,NA,NA,high
44,sad_high,11,691.5513000000007,NA,NA,NA
44,sad_high,12,691.886,0.3296000000015056,left,incorrect
44,sad_high,6,692.9013000000007,NA,NA,NA
44,sad_high,7,693.4876999999992,0.5845000000000482,right,correct
44,sad_high,9,693.7191000000014,NA,2,correct sad
44,sad_high,3,695.2339000000022,NA,NA,NA
45,sad_low,5,697.2366999999992,NA,NA,low
45,sad_low,11,698.4496000000014,NA,NA,NA
45,sad_low,12,698.8006999999992,0.3465000000001055,right,correct
45,sad_low,6,699.8156999999992,NA,NA,NA
45,sad_low,7,700.2856999999992,0.46880000000078326,right,correct
45,sad_low,9,700.6341000000015,NA,16,correct sad
45,sad_low,3,702.1476000000014,NA,NA,NA
46,angry_high,5,705.17,NA,NA,high
46,angry_high,11,706.3789999999999,NA,NA,NA
46,angry_high,12,707.0136999999992,0.6301999999992631,right,incorrect
46,angry_high,6,708.0298000000007,NA,NA,NA
46,angry_high,7,708.4654000000022,0.4339999999999691,right,incorrect
46,angry_high,9,708.8458000000007,NA,-50,wrong angry
46,angry_high,3,710.3623000000007,NA,NA,NA
47,sad_low,5,712.8805,NA,NA,low
47,sad_low,11,714.0769999999999,NA,NA,NA
47,sad_low,12,714.5274999999999,0.4458000000007587,left,incorrect
47,sad_low,6,715.5434000000022,NA,NA,NA
47,sad_low,7,716.0603000000007,0.5155999999977894,left,incorrect
47,sad_low,9,716.3599000000022,NA,-50,wrong sad
47,sad_low,3,717.8756999999991,NA,NA,NA
48,angry_high,5,720.8934999999999,NA,NA,high
48,angry_high,11,722.0909000000022,NA,NA,NA
48,angry_high,12,722.8746000000015,0.7765999999977566,left,correct
48,angry_high,6,723.8911999999992,NA,NA,NA
48,angry_high,7,724.4431999999991,0.5508000000006632,left,correct
48,angry_high,9,724.7094999999999,NA,6,correct angry
48,angry_high,3,726.2229000000021,NA,NA,NA
49,sad_low,5,728.747,NA,NA,low
49,sad_low,11,729.9548000000007,NA,NA,NA
49,sad_low,12,730.2049000000022,0.24019999999927677,right,correct
49,sad_low,6,731.222,NA,NA,NA
49,sad_low,7,731.6421999999992,0.41880000000071504,right,correct
49,sad_low,9,732.0395,NA,22,correct sad
49,sad_low,3,733.5533000000007,NA,NA,NA
50,angry_high,5,736.5821999999991,NA,NA,high
50,angry_high,11,737.7854000000021,NA,NA,NA
50,angry_high,12,737.9693000000007,0.17380000000082418,left,correct
50,angry_high,6,738.9854999999999,NA,NA,NA
50,angry_high,7,739.3391999999992,0.35210000000154196,left,correct
50,angry_high,9,739.8036000000014,NA,31,correct angry
50,angry_high,3,741.318,NA,NA,NA
51,sad_low,5,743.3211999999992,NA,NA,low
51,sad_low,11,744.5501000000014,NA,NA,NA
51,sad_low,12,744.9335,0.37249999999994543,right,correct
51,sad_low,6,745.9499999999999,NA,NA,NA
51,sad_low,7,746.4699000000022,0.5186000000014701,right,correct
51,sad_low,9,746.7676999999992,NA,10,correct sad
51,sad_low,3,748.2816000000014,NA,NA,NA
52,sad_low,5,750.8073000000007,NA,NA,low
52,sad_low,11,752.0141999999992,NA,NA,NA
52,sad_low,12,752.1469999999999,0.1290000000000191,right,correct
52,sad_low,6,753.1481000000015,NA,NA,NA
52,sad_low,7,753.2931999999992,0.14169999999921856,right,correct
52,sad_low,9,753.9654999999999,NA,57,correct sad
52,sad_low,3,755.4791999999992,NA,NA,NA
53,angry_high,5,757.4834999999999,NA,NA,high
53,angry_high,11,758.7114999999999,NA,NA,NA
53,angry_high,12,758.8293000000007,0.10950000000002547,left,correct
53,angry_high,6,759.8454999999999,NA,NA,NA
53,angry_high,7,760.1959000000022,0.34919999999931406,left,correct
53,angry_high,9,760.6636000000015,NA,31,correct angry
53,angry_high,3,762.1769000000022,NA,NA,NA
54,sad_low,5,765.1946000000014,NA,NA,low
54,sad_low,11,766.409,NA,NA,NA
54,sad_low,12,766.6764999999999,0.2591999999992822,right,correct
54,sad_low,6,767.6951999999992,NA,NA,NA
54,sad_low,7,768.1944000000021,0.49760000000151194,right,correct
54,sad_low,9,768.5101000000014,NA,13,correct sad
54,sad_low,3,770.0245,NA,NA,NA
55,sad_low,5,772.5281000000015,NA,NA,low
55,sad_low,11,773.7401000000015,NA,NA,NA
55,sad_low,12,774.0899999999999,0.3429999999999609,right,correct
55,sad_low,6,775.1066999999991,NA,NA,NA
55,sad_low,7,775.5769000000022,0.4686000000015156,right,correct
55,sad_low,9,775.9244000000022,NA,16,correct sad
55,sad_low,3,777.4385,NA,NA,NA
56,angry_low,5,780.4424000000022,NA,NA,low
56,angry_low,11,781.6701000000014,NA,NA,NA
56,angry_low,12,781.8881000000014,0.20150000000001,right,incorrect
56,angry_low,6,782.9036999999992,NA,NA,NA
56,angry_low,7,783.3579000000021,0.45260000000155287,right,incorrect
56,angry_low,9,783.7203000000006,NA,-50,wrong angry
56,angry_low,3,785.2359000000022,NA,NA,NA
57,sad_low,5,787.2601000000014,NA,NA,low
57,sad_low,11,788.4678000000007,NA,NA,NA
57,sad_low,12,788.9181000000015,0.43779999999696884,right,correct
57,sad_low,6,789.9346000000014,NA,NA,NA
57,sad_low,7,790.3699000000022,0.4336999999992486,left,incorrect
57,sad_low,9,790.7515,NA,-50,wrong sad
57,sad_low,3,792.2666000000014,NA,NA,NA
58,angry_high,5,794.2919999999999,NA,NA,high
58,angry_high,11,795.4826999999992,NA,NA,NA
58,angry_high,12,796.0164000000021,0.5183999999984508,left,correct
58,angry_high,6,797.0328000000006,NA,NA,NA
58,angry_high,7,797.7349999999999,0.7011000000015883,left,correct
58,angry_high,9,797.8509000000022,NA,-13,correct angry
58,angry_high,3,799.3639999999999,NA,NA,NA
59,sad_low,5,801.8681999999992,NA,NA,low
59,sad_low,11,803.0804000000022,NA,NA,NA
59,sad_low,12,803.5299000000022,0.43449999999995725,right,correct
59,sad_low,6,804.5476999999992,NA,NA,NA
59,sad_low,7,804.9303000000007,0.381300000000806,right,correct
59,sad_low,9,805.3646000000015,NA,27,correct sad
59,sad_low,3,806.8779000000021,NA,NA,NA
60,angry_low,5,808.9099000000022,NA,NA,low
60,angry_low,11,810.1273000000007,NA,NA,NA
60,angry_low,12,810.3944000000022,0.2604000000022779,right,incorrect
60,angry_low,6,811.411,NA,NA,NA
60,angry_low,7,811.8794000000022,0.46639999999854354,right,incorrect
60,angry_low,9,812.2276999999992,NA,-50,wrong angry
60,angry_low,3,813.7426999999992,NA,NA,NA
61,sad_high,5,816.2661000000014,NA,NA,high
61,sad_high,11,817.4746999999992,NA,NA,NA
61,sad_high,12,817.9754999999999,0.4881000000015092,left,incorrect
61,sad_high,6,818.9921000000014,NA,NA,NA
61,sad_high,7,819.4423000000007,0.44899999999995543,right,correct
61,sad_high,9,819.8093000000007,NA,19,correct sad
61,sad_high,3,821.3236000000014,NA,NA,NA
62,angry_low,5,823.8264000000022,NA,NA,low
62,angry_low,11,825.0391999999991,NA,NA,NA
62,angry_low,12,825.4224000000022,0.374400000002197,left,correct
62,angry_low,6,826.439,NA,NA,NA
62,angry_low,7,826.8435,0.4026999999991858,left,correct
62,angry_low,9,827.2574999999999,NA,24,correct angry
62,angry_low,3,828.7711000000014,NA,NA,NA
63,angry_low,5,830.7751999999992,NA,NA,low
63,angry_low,11,831.9873000000007,NA,NA,NA
63,angry_low,12,832.3706000000014,0.3743999999984453,left,correct
63,angry_low,6,833.3866999999992,NA,NA,NA
63,angry_low,7,833.9634000000021,0.5693000000007942,left,correct
63,angry_low,9,834.2049999999999,NA,4,correct angry
63,angry_low,3,835.7199000000022,NA,NA,NA
64,sad_high,5,838.7221999999991,NA,NA,high
64,sad_high,11,839.9504000000022,NA,NA,NA
64,sad_high,12,840.2344000000022,0.2720000000000482,right,correct
64,sad_high,6,841.2506000000014,NA,NA,NA
64,sad_high,7,841.7021999999992,0.45039999999846714,right,correct
64,sad_high,9,842.0526000000015,NA,19,correct sad
64,sad_high,3,843.5658000000006,NA,NA,NA
65,angry_low,5,846.5691000000014,NA,NA,low
65,angry_low,11,847.7979000000022,NA,NA,NA
65,angry_low,12,848.0316999999992,0.2190999999977521,right,incorrect
65,angry_low,6,849.0486000000014,NA,NA,NA
65,angry_low,7,849.5676000000014,0.5174999999999272,left,correct
65,angry_low,9,849.8668000000007,NA,10,correct angry
65,angry_low,3,851.3801000000014,NA,NA,NA
66,sad_high,5,854.3849000000022,NA,NA,high
66,sad_high,11,855.612,NA,NA,NA
66,sad_high,12,856.0791000000014,0.4598000000007687,left,incorrect
66,sad_high,6,857.0954999999999,NA,NA,NA
66,sad_high,7,857.6326000000014,0.5350000000000819,left,incorrect
66,sad_high,9,857.9116999999992,NA,-50,wrong sad
66,sad_high,3,859.4273000000006,NA,NA,NA
67,sad_high,5,862.4518000000007,NA,NA,high
67,sad_high,11,863.6593000000007,NA,NA,NA
67,sad_high,12,864.5094000000022,0.8363000000007332,left,incorrect
67,sad_high,6,865.526,NA,NA,NA
67,sad_high,7,866.0614000000022,0.533899999998539,right,correct
67,sad_high,9,866.3441000000014,NA,8,correct sad
67,sad_high,3,867.858,NA,NA,NA
68,angry_low,5,869.8624000000021,NA,NA,low
68,angry_low,11,871.0899999999999,NA,NA,NA
68,angry_low,12,871.391,0.2948000000006914,right,incorrect
68,angry_low,6,872.4069000000022,NA,NA,NA
68,angry_low,9,873.223,NA,-200,too slow angry
NA,angry_low,3,874.7234000000021,NA,NA,NA
69,sad_high,5,876.7496000000015,NA,NA,high
69,sad_high,11,877.9543000000007,NA,NA,NA
69,sad_high,12,878.5548000000007,0.5857999999969934,right,correct
69,sad_high,6,879.56,NA,NA,NA
69,sad_high,7,880.0066999999992,0.4455000000000382,right,correct
69,sad_high,9,880.372,NA,19,correct sad
69,sad_high,3,881.8903000000007,NA,NA,NA
70,sad_high,5,884.4208000000007,NA,NA,high
70,sad_high,11,885.6348000000007,NA,NA,NA
70,sad_high,12,886.0524000000022,0.41219999999930224,left,incorrect
70,sad_high,6,887.0686999999992,NA,NA,NA
70,sad_high,7,887.5593000000007,0.4883000000006632,right,correct
70,sad_high,9,887.8879000000022,NA,14,correct sad
70,sad_high,3,889.4006999999992,NA,NA,NA
71,angry_high,5,891.9046000000014,NA,NA,high
71,angry_high,11,893.1329000000022,NA,NA,NA
71,angry_high,12,893.6324000000021,0.48669999999924585,right,incorrect
71,angry_high,6,894.6493000000007,NA,NA,NA
71,angry_high,7,895.1331999999992,0.4826000000014119,left,correct
71,angry_high,9,895.4688000000007,NA,15,correct angry
71,angry_high,3,896.9821000000014,NA,NA,NA
72,sad_high,5,899.9854000000022,NA,NA,high
72,sad_high,11,901.1969999999999,NA,NA,NA
72,sad_high,12,901.4143000000007,0.2088999999986072,left,incorrect
72,sad_high,6,902.4306000000014,NA,NA,NA
72,sad_high,7,902.9808000000007,0.5488999999985253,right,correct
72,sad_high,9,903.2489999999999,NA,6,correct sad
72,sad_high,3,904.7619000000021,NA,NA,NA
73,angry_low,5,906.7656999999992,NA,NA,low
73,angry_low,11,907.9939999999999,NA,NA,NA
73,angry_low,12,908.4611000000015,0.4536999999992304,left,correct
73,angry_low,6,909.4779000000021,NA,NA,NA
73,angry_low,7,910.0286999999992,0.549100000001431,right,incorrect
73,angry_low,9,910.2934999999999,NA,-50,wrong angry
73,angry_low,3,911.8093000000007,NA,NA,NA
74,angry_low,5,914.3366000000015,NA,NA,low
74,angry_low,11,915.5421000000014,NA,NA,NA
74,angry_low,12,915.6928000000007,0.13480000000072323,right,incorrect
74,angry_low,6,916.709,NA,NA,NA
74,angry_low,7,917.4261999999992,0.7160000000000082,left,correct
74,angry_low,9,917.5274000000022,NA,-15,correct angry
74,angry_low,3,919.0408000000007,NA,NA,NA
75,sad_low,5,921.0598000000007,NA,NA,low
75,sad_low,11,922.2565,NA,NA,NA
75,sad_low,12,922.6399000000022,0.36989999999843803,left,incorrect
75,sad_low,6,923.6564999999999,NA,NA,NA
75,sad_low,7,924.0591999999992,0.40090000000225245,left,incorrect
75,sad_low,9,924.4729000000021,NA,-50,wrong sad
75,sad_low,3,925.9884999999999,NA,NA,NA
76,angry_low,5,929.0139000000022,NA,NA,low
76,angry_low,11,930.2036999999992,NA,NA,NA
76,angry_low,12,930.3871999999992,0.1675000000000182,right,incorrect
76,angry_low,6,931.4034000000022,NA,NA,NA
76,angry_low,7,931.8375,0.43200000000001637,right,incorrect
76,angry_low,9,932.2035,NA,-50,wrong angry
76,angry_low,3,933.7191999999992,NA,NA,NA
77,sad_high,5,936.2433000000007,NA,NA,high
77,sad_high,11,937.4511000000015,NA,NA,NA
77,sad_high,12,937.7009999999999,0.23669999999924585,right,correct
77,sad_high,6,938.7181999999992,NA,NA,NA
77,sad_high,7,939.1868000000006,0.4672000000028902,right,correct
77,sad_high,9,939.5356000000014,NA,16,correct sad
77,sad_high,3,941.0494000000022,NA,NA,NA
78,angry_low,5,943.0543000000007,NA,NA,low
78,angry_low,11,944.2821999999992,NA,NA,NA
78,angry_low,12,945.0491000000014,0.757699999999204,right,incorrect
78,angry_low,6,946.0653000000007,NA,NA,NA
78,angry_low,7,946.6836999999991,0.6170000000000755,left,correct
78,angry_low,9,946.8831000000014,NA,-2,correct angry
78,angry_low,3,948.3978000000006,NA,NA,NA
79,sad_high,5,950.9006000000014,NA,NA,high
79,sad_high,11,952.1296000000015,NA,NA,NA
79,sad_high,12,952.2969000000022,0.15140000000224063,right,correct
79,sad_high,6,953.3126000000015,NA,NA,NA
79,sad_high,7,953.8833000000006,0.5694999999999482,right,correct
79,sad_high,9,954.1321999999992,NA,4,correct sad
79,sad_high,3,955.6451000000014,NA,NA,NA
80,angry_low,5,958.679,NA,NA,low
80,angry_low,11,959.8769000000021,NA,NA,NA
80,angry_low,12,960.1941000000014,0.30289999999854444,left,correct
80,angry_low,6,961.2106999999992,NA,NA,NA
80,angry_low,7,961.6478000000006,0.43570000000295295,right,incorrect
80,angry_low,9,962.0266999999992,NA,-50,wrong angry
80,angry_low,3,963.5424000000022,NA,NA,NA
81,angry_high,5,965.5713000000006,NA,NA,high
81,angry_high,11,966.7746999999991,NA,NA,NA
81,angry_high,12,967.2081999999992,0.4227000000029193,right,incorrect
81,angry_high,6,968.2248000000006,NA,NA,NA
81,angry_high,7,968.5286999999992,0.30239999999855627,right,incorrect
81,angry_high,9,969.0413000000007,NA,-50,wrong angry
81,angry_high,3,970.5564999999999,NA,NA,NA
82,sad_high,5,973.0823000000007,NA,NA,high
82,sad_high,11,974.2888000000007,NA,NA,NA
82,sad_high,12,974.9061000000014,0.6096999999992931,right,correct
82,sad_high,6,975.9219000000022,NA,NA,NA
82,sad_high,7,976.6088000000007,0.6854999999999336,right,correct
82,sad_high,9,976.7236999999992,NA,-11,correct sad
82,sad_high,3,978.2371999999992,NA,NA,NA
83,angry_low,5,980.2416999999992,NA,NA,low
83,angry_low,11,981.4534000000021,NA,NA,NA
83,angry_low,12,981.6879000000022,0.23060000000157288,right,incorrect
83,angry_low,6,982.7028000000007,NA,NA,NA
83,angry_low,7,983.3563000000007,0.6516999999992095,left,correct
83,angry_low,9,983.5208000000007,NA,-7,correct angry
83,angry_low,3,985.035,NA,NA,NA
84,angry_low,5,988.064,NA,NA,low
84,angry_low,11,989.2676000000014,NA,NA,NA
84,angry_low,12,989.5506000000015,0.27119999999922584,right,incorrect
84,angry_low,6,990.5675000000001,NA,NA,NA
84,angry_low,7,991.1198000000009,0.5508000000006632,left,correct
84,angry_low,9,991.3848000000007,NA,6,correct angry
84,angry_low,3,992.8993000000007,NA,NA,NA
85,angry_low,5,995.4236000000014,NA,NA,low
85,angry_low,11,996.6149000000023,NA,NA,NA
85,angry_low,12,996.9646999999993,0.33739999999852444,right,incorrect
85,angry_low,6,997.9816000000014,NA,NA,NA
85,angry_low,7,998.6323000000009,0.6493000000009488,right,incorrect
85,angry_low,9,998.7971999999993,NA,-50,wrong angry
85,angry_low,3,1000.3136999999992,NA,NA,NA
86,sad_high,5,1003.3376999999994,NA,NA,high
86,sad_high,11,1004.5456000000015,NA,NA,NA
86,sad_high,12,1004.9296000000015,0.3703999999984262,right,correct
86,sad_high,6,1005.9461999999994,NA,NA,NA
86,sad_high,7,1006.4973000000009,0.5498000000006869,right,correct
86,sad_high,9,1006.7639000000022,NA,6,correct sad
86,sad_high,3,1008.2774000000022,NA,NA,NA
87,angry_low,5,1010.2811999999992,NA,NA,low
87,angry_low,11,1011.4931999999992,NA,NA,NA
87,angry_low,12,1011.7939000000024,0.28859999999781394,right,incorrect
87,angry_low,6,1012.8106000000016,NA,NA,NA
87,angry_low,7,1013.2795000000001,0.46730000000070504,left,correct
87,angry_low,9,1013.6283000000008,NA,16,correct angry
87,angry_low,3,1015.142,NA,NA,NA
88,sad_high,5,1017.6663000000008,NA,NA,high
88,sad_high,11,1018.8736999999994,NA,NA,NA
88,sad_high,12,1019.2073000000007,0.3232000000029984,right,correct
88,sad_high,6,1020.2236000000016,NA,NA,NA
88,sad_high,7,1020.7596999999994,0.5348999999985153,right,correct
88,sad_high,9,1021.0254000000023,NA,8,correct sad
88,sad_high,3,1022.5391000000016,NA,NA,NA
89,sad_high,5,1024.5424000000023,NA,NA,high
89,sad_high,11,1025.7551000000014,NA,NA,NA
89,sad_high,12,1026.2716000000016,0.5042999999971016,right,correct
89,sad_high,6,1027.2889000000023,NA,NA,NA
89,sad_high,7,1027.8211999999994,0.5311999999992167,right,correct
89,sad_high,9,1028.106,NA,8,correct sad
89,sad_high,3,1029.6201999999994,NA,NA,NA
90,sad_high,5,1032.6531999999993,NA,NA,high
90,sad_high,11,1033.8686999999993,NA,NA,NA
90,sad_high,12,1033.969,0.09339999999860993,right,correct
90,sad_high,6,1034.9861999999994,NA,NA,NA
90,sad_high,7,1035.5716000000016,0.583800000000565,right,correct
90,sad_high,9,1035.8033000000007,NA,2,correct sad
90,sad_high,3,1037.3178000000007,NA,NA,NA
91,sad_low,5,1039.8215,NA,NA,low
91,sad_low,11,1041.0336999999993,NA,NA,NA
91,sad_low,12,1041.4001000000014,0.3569999999999709,left,incorrect
91,sad_low,6,1042.4161000000015,NA,NA,NA
91,sad_low,7,1042.9678000000008,0.5500999999978831,right,correct
91,sad_low,9,1043.2355,NA,6,correct sad
91,sad_low,3,1044.749,NA,NA,NA
92,angry_high,5,1046.7523000000008,NA,NA,high
92,angry_high,11,1047.9824000000024,NA,NA,NA
92,angry_high,12,1048.3483000000008,0.354699999999184,left,correct
92,angry_high,6,1049.3646999999994,NA,NA,NA
92,angry_high,7,1049.882300000001,0.5163000000006832,left,correct
92,angry_high,9,1050.1826000000015,NA,10,correct angry
92,angry_high,3,1051.6844000000024,NA,NA,NA
93,sad_high,5,1054.2026999999994,NA,NA,high
93,sad_high,11,1055.4281000000015,NA,NA,NA
93,sad_high,12,1055.9618000000007,0.5193000000008396,left,incorrect
93,sad_high,6,1056.9791000000016,NA,NA,NA
93,sad_high,7,1057.5566000000015,0.5761999999992895,right,correct
93,sad_high,9,1057.7968000000008,NA,3,correct sad
93,sad_high,3,1059.298,NA,NA,NA
94,angry_high,5,1062.3141000000016,NA,NA,high
94,angry_high,11,1063.5278000000008,NA,NA,NA
94,angry_high,12,1063.5929000000024,0.05219999999940228,left,correct
94,angry_high,6,1064.6091999999992,NA,NA,NA
94,angry_high,7,1065.2943000000007,0.6839000000022679,left,correct
94,angry_high,9,1065.4264000000023,NA,-11,correct angry
94,angry_high,3,1066.9408000000008,NA,NA,NA
95,sad_low,5,1068.9439000000023,NA,NA,low
95,sad_low,11,1070.1731000000016,NA,NA,NA
95,sad_low,12,1070.6236000000015,0.4420000000000073,left,incorrect
95,sad_low,6,1071.641,NA,NA,NA
95,sad_low,7,1072.142300000001,0.49990000000229884,right,correct
95,sad_low,9,1072.4583000000007,NA,12,correct sad
95,sad_low,3,1073.9726000000016,NA,NA,NA
96,angry_low,5,1076.4771000000014,NA,NA,low
96,angry_low,11,1077.7039000000022,NA,NA,NA
96,angry_low,12,1078.221,0.507699999999204,right,incorrect
96,angry_low,6,1079.2371999999993,NA,NA,NA
96,angry_low,7,1079.8576000000016,0.6192000000030475,right,incorrect
96,angry_low,9,1080.0539000000024,NA,-50,wrong angry
96,angry_low,3,1081.57,NA,NA,NA
97,angry_high,5,1084.592,NA,NA,high
97,angry_high,11,1085.8015,NA,NA,NA
97,angry_high,12,1086.3186999999994,0.5051999999991494,left,correct
97,angry_high,6,1087.335,NA,NA,NA
97,angry_high,7,1087.8881999999994,0.5519000000022061,left,correct
97,angry_high,9,1088.1529000000023,NA,6,correct angry
97,angry_high,3,1089.6670000000001,NA,NA,NA
98,angry_low,5,1092.1695,NA,NA,low
98,angry_low,11,1093.3988000000008,NA,NA,NA
98,angry_low,12,1093.6166000000014,0.20309999999790307,right,incorrect
98,angry_low,6,1094.6326999999992,NA,NA,NA
98,angry_low,7,1095.3026999999993,0.6679000000024189,left,correct
98,angry_low,9,1095.451,NA,-9,correct angry
98,angry_low,3,1096.9643000000008,NA,NA,NA
99,sad_low,5,1098.9681999999993,NA,NA,low
99,sad_low,11,1100.1975,NA,NA,NA
99,sad_low,12,1100.5638000000008,0.35830000000078144,left,incorrect
99,sad_low,6,1101.5804000000023,NA,NA,NA
99,sad_low,7,1102.1006999999993,0.5183999999985645,right,correct
99,sad_low,9,1102.3996999999993,NA,10,correct sad
99,sad_low,3,1103.9118000000008,NA,NA,NA
100,sad_high,5,1105.9546999999993,NA,NA,high
100,sad_high,11,1107.1776999999993,NA,NA,NA
100,sad_high,12,1107.4446000000016,0.25919999999905485,right,correct
100,sad_high,6,1108.4614000000022,NA,NA,NA
100,sad_high,7,1109.0134000000023,0.5463999999985845,right,correct
100,sad_high,9,1109.2634000000023,NA,6,correct sad
100,sad_high,3,1110.7771000000016,NA,NA,NA
101,angry_low,5,1113.2820000000002,NA,NA,low
101,angry_low,11,1114.4924000000024,NA,NA,NA
101,angry_low,12,1114.7265,0.22209999999768115,right,incorrect
101,angry_low,6,1115.7421000000015,NA,NA,NA
101,angry_low,7,1116.1778000000008,0.4341000000015356,left,correct
101,angry_low,9,1116.5601999999992,NA,21,correct angry
101,angry_low,3,1118.0741999999993,NA,NA,NA
102,sad_high,5,1121.0781000000015,NA,NA,high
102,sad_high,11,1122.3059000000023,NA,NA,NA
102,sad_high,12,1122.9561999999994,0.6423000000008869,left,incorrect
102,sad_high,6,1123.9735,NA,NA,NA
102,sad_high,7,1124.4429000000023,0.4673999999984062,right,correct
102,sad_high,9,1124.7903000000008,NA,16,correct sad
102,sad_high,3,1126.3045,NA,NA,NA
103,sad_high,5,1128.8083000000008,NA,NA,high
103,sad_high,11,1130.0371000000016,NA,NA,NA
103,sad_high,12,1130.3378000000007,0.2905000000000655,left,incorrect
103,sad_high,6,1131.3539000000023,NA,NA,NA
103,sad_high,7,1131.9581999999994,0.6030000000000655,right,correct
103,sad_high,9,1132.1723000000009,NA,-1,correct sad
103,sad_high,3,1133.6728000000007,NA,NA,NA
104,angry_low,5,1136.6904000000022,NA,NA,low
104,angry_low,11,1137.9025000000001,NA,NA,NA
104,angry_low,12,1138.0181000000016,0.10400000000004184,right,incorrect
104,angry_low,6,1139.0346999999992,NA,NA,NA
104,angry_low,7,1139.5618000000009,0.5256999999992331,right,incorrect
104,angry_low,9,1139.8511000000015,NA,-50,wrong angry
104,angry_low,3,1141.3664000000024,NA,NA,NA
105,sad_high,5,1143.8843000000008,NA,NA,high
105,sad_high,11,1145.0821999999994,NA,NA,NA
105,sad_high,12,1145.6158000000007,0.5264999999999418,right,correct
105,sad_high,6,1146.6321999999993,NA,NA,NA
105,sad_high,7,1147.1583000000007,0.5244000000022879,right,correct
105,sad_high,9,1147.434800000001,NA,9,correct sad
105,sad_high,3,1148.9346999999993,NA,NA,NA
106,angry_low,5,1151.9651000000015,NA,NA,low
106,angry_low,11,1153.1628000000007,NA,NA,NA
106,angry_low,12,1153.563,0.3908000000008087,right,incorrect
106,angry_low,6,1154.579,NA,NA,NA
106,angry_low,7,1155.1071000000015,0.5266999999994368,left,correct
106,angry_low,9,1155.3974000000023,NA,9,correct angry
106,angry_low,3,1156.8985,NA,NA,NA
107,sad_high,5,1159.4159000000022,NA,NA,high
107,sad_high,11,1160.6439000000023,NA,NA,NA
107,sad_high,12,1161.0941999999993,0.44019999999909487,right,correct
107,sad_high,6,1162.1101000000015,NA,NA,NA
107,sad_high,7,1162.6655,0.5540000000000873,right,correct
107,sad_high,9,1162.9275,NA,6,correct sad
107,sad_high,3,1164.4296999999992,NA,NA,NA
108,angry_low,5,1166.4456999999993,NA,NA,low
108,angry_low,11,1167.6581999999994,NA,NA,NA
108,angry_low,12,1167.9080000000001,0.23710000000141918,right,incorrect
108,angry_low,6,1168.9243000000008,NA,NA,NA
108,angry_low,7,1169.384,0.4581000000014228,left,correct
108,angry_low,9,1169.7424000000024,NA,18,correct angry
108,angry_low,3,1171.2436000000016,NA,NA,NA
109,angry_low,5,1174.2746000000016,NA,NA,low
109,angry_low,11,1175.4884000000022,NA,NA,NA
109,angry_low,12,1176.8718000000008,1.3741999999992913,right,incorrect
109,angry_low,6,1177.8883000000008,NA,NA,NA
109,angry_low,7,1178.3419000000024,0.45219999999926586,left,correct
109,angry_low,9,1178.7060000000001,NA,18,correct angry
109,angry_low,3,1180.207,NA,NA,NA
110,sad_high,5,1182.2693000000008,NA,NA,high
110,sad_high,11,1183.4856999999993,NA,NA,NA
110,sad_high,12,1183.7035,0.21459999999774482,right,correct
110,sad_high,6,1184.7201000000016,NA,NA,NA
110,sad_high,7,1185.4371999999994,0.7158000000006268,right,correct
110,sad_high,9,1185.5369000000023,NA,-15,correct sad
110,sad_high,3,1187.0516999999993,NA,NA,NA
111,angry_high,5,1190.0694000000024,NA,NA,high
111,angry_high,11,1191.2835,NA,NA,NA
111,angry_high,12,1191.7008000000008,0.40310000000135915,left,correct
111,angry_high,6,1192.7166000000016,NA,NA,NA
111,angry_high,7,1193.2523000000008,0.5343999999984135,left,correct
111,angry_high,9,1193.518,NA,8,correct angry
111,angry_high,3,1195.0328000000009,NA,NA,NA
112,sad_high,5,1197.5546999999992,NA,NA,high
112,sad_high,11,1198.7644000000023,NA,NA,NA
112,sad_high,12,1199.3474000000024,0.5734999999999673,right,correct
112,sad_high,6,1200.3645000000001,NA,NA,NA
112,sad_high,7,1201.0256999999992,0.6599999999998545,right,correct
112,sad_high,9,1201.1826000000015,NA,-8,correct sad
112,sad_high,3,1202.6836000000014,NA,NA,NA
113,angry_low,5,1204.7006000000015,NA,NA,low
113,angry_low,11,1205.929,NA,NA,NA
113,angry_low,12,1206.0958000000007,0.15769999999929496,right,incorrect
113,angry_low,6,1207.1125,NA,NA,NA
113,angry_low,7,1207.6465,0.5328000000008615,left,correct
113,angry_low,9,1207.9296999999992,NA,8,correct angry
113,angry_low,3,1209.4311999999993,NA,NA,NA
114,sad_low,5,1211.4473000000007,NA,NA,low
114,sad_low,11,1212.6766000000016,NA,NA,NA
114,sad_low,12,1212.8269000000023,0.1348999999984244,right,correct
114,sad_low,6,1213.843,NA,NA,NA
114,sad_low,7,1214.2865000000002,0.4416999999991731,right,correct
114,sad_low,9,1214.6614000000022,NA,20,correct sad
114,sad_low,3,1216.1631999999993,NA,NA,NA
115,sad_high,5,1219.1786999999993,NA,NA,high
115,sad_high,11,1220.4068000000009,NA,NA,NA
115,sad_high,12,1220.6741999999992,0.26029999999695974,left,incorrect
115,sad_high,6,1221.6905000000002,NA,NA,NA
115,sad_high,7,1222.1506999999992,0.45899999999983265,left,incorrect
115,sad_high,9,1222.5071999999993,NA,-50,wrong sad
115,sad_high,3,1224.0224000000023,NA,NA,NA
116,angry_low,5,1226.5463000000009,NA,NA,low
116,angry_low,11,1227.7546999999993,NA,NA,NA
116,angry_low,12,1228.088800000001,0.3181999999992513,left,correct
116,angry_low,6,1229.1053000000009,NA,NA,NA
116,angry_low,7,1229.7089000000024,0.6014999999999873,left,correct
116,angry_low,9,1229.9245,NA,0,correct angry
116,angry_low,3,1231.4366000000016,NA,NA,NA
117,sad_low,5,1234.4615000000001,NA,NA,low
117,sad_low,11,1235.669,NA,NA,NA
117,sad_low,12,1235.9359000000022,0.26259999999774664,left,incorrect
117,sad_low,6,1236.9521999999993,NA,NA,NA
117,sad_low,7,1237.4873000000007,0.5340000000001055,right,correct
117,sad_low,9,1237.7696999999994,NA,8,correct sad
117,sad_low,3,1239.2846000000015,NA,NA,NA
118,angry_low,5,1241.8023000000007,NA,NA,low
118,angry_low,11,1243.0161000000016,NA,NA,NA
118,angry_low,12,1243.334300000001,0.30439999999862266,right,incorrect
118,angry_low,6,1244.3500000000001,NA,NA,NA
118,angry_low,7,1244.9188000000008,0.5673000000006141,left,correct
118,angry_low,9,1245.1671000000015,NA,4,correct angry
118,angry_low,3,1246.6816999999994,NA,NA,NA
119,sad_high,5,1248.6854000000023,NA,NA,high
119,sad_high,11,1249.9139000000023,NA,NA,NA
119,sad_high,12,1250.2646999999993,0.34690000000227883,right,correct
119,sad_high,6,1251.2816000000016,NA,NA,NA
119,sad_high,7,1251.8149000000024,0.5320999999976266,right,correct
119,sad_high,9,1252.0986999999993,NA,8,correct sad
119,sad_high,3,1253.6128000000008,NA,NA,NA
120,angry_low,5,1256.1858000000009,NA,NA,low
120,angry_low,11,1257.3781000000015,NA,NA,NA
120,angry_low,12,1257.6785,0.29119999999920765,left,correct
120,angry_low,6,1258.6956999999993,NA,NA,NA
120,angry_low,7,1259.1555,0.4586000000015247,left,correct
120,angry_low,9,1259.5129000000022,NA,18,correct angry
120,angry_low,3,1261.0144000000023,NA,NA,NA
121,sad_low,5,1264.0521000000015,NA,NA,low
121,sad_low,11,1265.259,NA,NA,NA
121,sad_low,12,1265.6593000000007,0.39010000000166656,right,correct
121,sad_low,6,1266.6608000000008,NA,NA,NA
121,sad_low,7,1267.1943000000008,0.5323000000007596,right,correct
121,sad_low,9,1267.477,NA,8,correct sad
121,sad_low,3,1268.9781999999993,NA,NA,NA
122,angry_high,5,1270.9953000000007,NA,NA,high
122,angry_high,11,1272.2251000000015,NA,NA,NA
122,angry_high,12,1272.6071999999992,0.3786999999992986,right,incorrect
122,angry_high,6,1273.6239000000023,NA,NA,NA
122,angry_high,7,1274.2019000000023,0.5765999999978249,left,correct
122,angry_high,9,1274.4428000000007,NA,3,correct angry
122,angry_high,3,1275.9426999999994,NA,NA,NA
123,angry_low,5,1278.9588000000008,NA,NA,low
123,angry_low,11,1280.1873000000007,NA,NA,NA
123,angry_low,12,1280.7878000000007,0.588700000002973,left,correct
123,angry_low,6,1281.8043000000007,NA,NA,NA
123,angry_low,7,1282.3799000000022,0.573300000000927,left,correct
123,angry_low,9,1282.6065,NA,3,correct angry
123,angry_low,3,1284.1194000000023,NA,NA,NA
124,sad_high,5,1286.6243000000009,NA,NA,high
124,sad_high,11,1287.8514000000023,NA,NA,NA
124,sad_high,12,1288.1525000000001,0.2871000000013737,left,incorrect
124,sad_high,6,1289.1686000000016,NA,NA,NA
124,sad_high,7,1289.7391999999993,0.5685000000000855,right,correct
124,sad_high,9,1289.9861999999994,NA,4,correct sad
124,sad_high,3,1291.5004000000022,NA,NA,NA
125,angry_low,5,1294.525,NA,NA,low
125,angry_low,11,1295.7161000000015,NA,NA,NA
125,angry_low,12,1296.2991000000015,0.569800000000896,left,correct
125,angry_low,6,1297.3156999999992,NA,NA,NA
125,angry_low,7,1297.8706999999993,0.553000000000111,right,incorrect
125,angry_low,9,1298.1326000000015,NA,-50,wrong angry
125,angry_low,3,1299.6483000000007,NA,NA,NA
126,sad_high,5,1302.1716000000015,NA,NA,high
126,sad_high,11,1303.38,NA,NA,NA
126,sad_high,12,1303.5969000000023,0.20419999999921856,left,incorrect
126,sad_high,6,1304.6138000000008,NA,NA,NA
126,sad_high,7,1305.2494000000022,0.6341999999992822,right,correct
126,sad_high,9,1305.4326000000015,NA,-4,correct sad
126,sad_high,3,1306.9453000000008,NA,NA,NA
127,sad_high,5,1309.9643000000008,NA,NA,high
127,sad_high,11,1311.1779000000022,NA,NA,NA
127,sad_high,12,1311.7444000000023,0.5562999999970089,left,incorrect
127,sad_high,6,1312.7609000000023,NA,NA,NA
127,sad_high,7,1313.3545000000001,0.5921999999993659,right,correct
127,sad_high,9,1313.5791999999992,NA,1,correct sad
127,sad_high,3,1315.0804000000023,NA,NA,NA
128,angry_low,5,1317.0963000000008,NA,NA,low
128,angry_low,11,1318.3088000000007,NA,NA,NA
128,angry_low,12,1318.5424000000023,0.21990000000209875,right,incorrect
128,angry_low,6,1319.5609000000022,NA,NA,NA
128,angry_low,7,1320.2081999999994,0.6440000000000055,right,incorrect
128,angry_low,9,1320.3748000000007,NA,-50,wrong angry
128,angry_low,3,1321.8751000000016,NA,NA,NA
129,angry_high,5,1324.9149000000023,NA,NA,high
129,angry_high,11,1326.1221000000016,NA,NA,NA
129,angry_high,12,1326.6226000000015,0.49450000000001637,left,correct
129,angry_high,6,1327.6391000000015,NA,NA,NA
129,angry_high,7,1328.2411000000016,0.6005999999979394,left,correct
129,angry_high,9,1328.4571999999994,NA,0,correct angry
129,angry_high,3,1329.958,NA,NA,NA
130,angry_low,5,1332.5191999999993,NA,NA,low
130,angry_low,11,1333.7365,NA,NA,NA
130,angry_low,12,1334.087,0.3364999999998872,right,incorrect
130,angry_low,6,1335.1035,NA,NA,NA
130,angry_low,7,1335.6209000000024,0.5163000000009106,right,incorrect
130,angry_low,9,1335.9193000000007,NA,-50,wrong angry
130,angry_low,3,1337.4359000000022,NA,NA,NA
131,sad_high,5,1339.4535,NA,NA,high
131,sad_high,11,1340.6680000000001,NA,NA,NA
131,sad_high,12,1341.1516000000015,0.47219999999924767,left,incorrect
131,sad_high,6,1342.1676000000016,NA,NA,NA
131,sad_high,7,1342.7541999999994,0.5844999999999345,right,correct
131,sad_high,9,1342.9853000000007,NA,2,correct sad
131,sad_high,3,1344.4994000000022,NA,NA,NA
132,sad_high,5,1347.0031999999992,NA,NA,high
132,sad_high,11,1348.2154000000023,NA,NA,NA
132,sad_high,12,1348.3985,0.17309999999770298,right,correct
132,sad_high,6,1349.416,NA,NA,NA
132,sad_high,7,1349.8658000000007,0.4481000000016593,right,correct
132,sad_high,9,1350.2331000000015,NA,19,correct sad
132,sad_high,3,1351.747300000001,NA,NA,NA
133,angry_low,5,1354.7776000000015,NA,NA,low
133,angry_low,11,1355.9636000000016,NA,NA,NA
133,angry_low,12,1356.079800000001,0.10599999999999454,right,incorrect
133,angry_low,6,1357.0968000000007,NA,NA,NA
133,angry_low,7,1357.6651999999992,0.5671000000015738,left,correct
133,angry_low,9,1357.9136000000015,NA,4,correct angry
133,angry_low,3,1359.4281000000015,NA,NA,NA
134,sad_high,5,1362.4461000000015,NA,NA,high
134,sad_high,11,1363.6443000000008,NA,NA,NA
134,sad_high,12,1363.9941999999994,0.3356000000014774,left,incorrect
134,sad_high,6,1365.0101999999993,NA,NA,NA
134,sad_high,7,1365.5493000000008,0.5375000000001364,right,correct
134,sad_high,9,1365.8278000000007,NA,8,correct sad
134,sad_high,3,1367.342,NA,NA,NA
135,angry_low,5,1369.8456000000015,NA,NA,low
135,angry_low,11,1371.0586999999994,NA,NA,NA
135,angry_low,12,1371.6245000000001,0.5554999999999382,left,correct
135,angry_low,6,1372.6411000000016,NA,NA,NA
135,angry_low,9,1373.4571999999994,NA,-200,too slow angry
NA,angry_low,3,1374.9575,NA,NA,NA
136,sad_low,5,1376.9850000000001,NA,NA,low
136,sad_low,11,1378.1725000000001,NA,NA,NA
136,sad_low,12,1378.7235,0.5355999999978849,left,incorrect
136,sad_low,6,1379.7435,NA,NA,NA
136,sad_low,7,1380.3396999999993,0.5950000000000273,left,incorrect
136,sad_low,9,1380.5546000000015,NA,-50,wrong sad
136,sad_low,3,1382.0703000000008,NA,NA,NA
137,angry_low,5,1385.0978000000007,NA,NA,low
137,angry_low,11,1386.2864000000022,NA,NA,NA
137,angry_low,12,1386.3704000000023,0.06980000000089603,left,correct
137,angry_low,6,1387.3864000000024,NA,NA,NA
137,angry_low,7,1387.7719000000022,0.38439999999832253,right,incorrect
137,angry_low,9,1388.2026999999994,NA,-50,wrong angry
137,angry_low,3,1389.7185,NA,NA,NA
138,sad_high,5,1392.2416000000014,NA,NA,high
138,sad_high,11,1393.4345,NA,NA,NA
138,sad_high,12,1394.0675,0.619099999997843,left,incorrect
138,sad_high,6,1395.0841000000016,NA,NA,NA
138,sad_high,7,1395.4026999999994,0.31719999999927495,right,correct
138,sad_high,9,1395.902,NA,35,correct sad
138,sad_high,3,1397.4161000000015,NA,NA,NA
139,sad_high,5,1399.4186999999993,NA,NA,high
139,sad_high,11,1400.6318000000008,NA,NA,NA
139,sad_high,12,1401.1319000000024,0.4896999999994023,left,incorrect
139,sad_high,6,1402.1486999999993,NA,NA,NA
139,sad_high,7,1402.5651000000016,0.41460000000142827,right,correct
139,sad_high,9,1402.9664000000023,NA,23,correct sad
139,sad_high,3,1404.4806000000015,NA,NA,NA
140,angry_high,5,1407.0341000000014,NA,NA,high
140,angry_high,11,1408.2458000000008,NA,NA,NA
140,angry_high,12,1408.4624000000024,0.20940000000223336,left,correct
140,angry_high,6,1409.4796000000015,NA,NA,NA
140,angry_high,7,1409.9484000000023,0.4674999999999727,right,incorrect
140,angry_high,9,1410.2959000000023,NA,-50,wrong angry
140,angry_high,3,1411.8109000000022,NA,NA,NA
141,angry_low,5,1414.8378000000007,NA,NA,low
141,angry_low,11,1416.0431000000015,NA,NA,NA
141,angry_low,12,1416.4776999999992,0.42019999999934043,right,incorrect
141,angry_low,6,1417.4934000000023,NA,NA,NA
141,angry_low,7,1418.0626999999993,0.5679999999999836,right,incorrect
141,angry_low,9,1418.3093000000008,NA,-50,wrong angry
141,angry_low,3,1419.8255000000001,NA,NA,NA
142,angry_low,5,1421.8286000000016,NA,NA,low
142,angry_low,11,1423.0409000000022,NA,NA,NA
142,angry_low,12,1423.6081999999992,0.5601999999992131,left,correct
142,angry_low,6,1424.6241000000016,NA,NA,NA
142,angry_low,7,1425.2441000000015,0.6179999999999382,right,incorrect
142,angry_low,9,1425.4406999999992,NA,-50,wrong angry
142,angry_low,3,1426.9565,NA,NA,NA
143,sad_high,5,1429.9823000000008,NA,NA,high
143,sad_high,11,1431.1888000000008,NA,NA,NA
143,sad_high,12,1431.805300000001,0.602899999998499,left,incorrect
143,sad_high,6,1432.8064000000022,NA,NA,NA
143,sad_high,7,1433.3231000000014,0.5134999999997945,right,correct
143,sad_high,9,1433.6246999999994,NA,10,correct sad
143,sad_high,3,1435.1374000000023,NA,NA,NA
144,angry_high,5,1437.6406000000015,NA,NA,high
144,angry_high,11,1438.8529000000024,NA,NA,NA
144,angry_high,12,1439.153,0.28840000000218424,left,correct
144,angry_high,6,1440.1693000000007,NA,NA,NA
144,angry_high,7,1440.7879000000023,0.6153000000008433,right,incorrect
144,angry_high,9,1440.9699000000023,NA,-50,wrong angry
144,angry_high,3,1442.4841999999992,NA,NA,NA
145,angry_low,5,1445.0041999999994,NA,NA,low
145,angry_low,11,1446.2005000000001,NA,NA,NA
145,angry_low,12,1446.767,0.5533000000007178,left,correct
145,angry_low,6,1447.7853000000007,NA,NA,NA
145,angry_low,7,1448.3646000000015,0.5771999999992659,right,incorrect
145,angry_low,9,1448.5998000000009,NA,-50,wrong angry
145,angry_low,3,1450.1155,NA,NA,NA
146,sad_high,5,1452.1385,NA,NA,high
146,sad_high,11,1453.3311999999994,NA,NA,NA
146,sad_high,12,1453.7646999999993,0.4188999999985299,left,incorrect
146,sad_high,6,1454.7815,NA,NA,NA
146,sad_high,7,1455.3163000000009,0.5333999999984371,left,incorrect
146,sad_high,9,1455.597,NA,-50,wrong sad
146,sad_high,3,1457.1134000000022,NA,NA,NA
147,sad_high,5,1459.6384000000023,NA,NA,high
147,sad_high,11,1460.8283000000008,NA,NA,NA
147,sad_high,12,1461.2961999999993,0.46109999999794127,right,correct
147,sad_high,6,1462.3118000000009,NA,NA,NA
147,sad_high,7,1462.8786999999993,0.5653999999985899,right,correct
147,sad_high,9,1463.1295,NA,4,correct sad
147,sad_high,3,1464.6443000000008,NA,NA,NA
148,sad_low,5,1467.646,NA,NA,low
148,sad_low,11,1468.8758000000007,NA,NA,NA
148,sad_low,12,1469.393,0.5058000000008178,right,correct
148,sad_low,6,1470.4101000000016,NA,NA,NA
148,sad_low,7,1471.0275000000001,0.6163000000005923,right,correct
148,sad_low,9,1471.2269000000024,NA,-2,correct sad
148,sad_low,3,1472.7415,NA,NA,NA
149,sad_high,5,1474.746,NA,NA,high
149,sad_high,11,1475.9740000000002,NA,NA,NA
149,sad_high,12,1476.4075,0.4223000000006323,right,correct
149,sad_high,6,1477.4235,NA,NA,NA
149,sad_high,7,1478.0111999999992,0.5864000000021861,right,correct
149,sad_high,9,1478.2415,NA,2,correct sad
149,sad_high,3,1479.7556999999993,NA,NA,NA
150,angry_high,5,1482.815,NA,NA,high
150,angry_high,11,1484.0211999999992,NA,NA,NA
150,angry_high,12,1484.3376999999994,0.3053000000006705,left,correct
150,angry_high,6,1485.3551000000016,NA,NA,NA
150,angry_high,7,1485.8721999999993,0.5158000000008087,right,incorrect
150,angry_high,9,1486.1706000000015,NA,-50,wrong angry
150,angry_high,3,1487.6866999999993,NA,NA,NA
151,sad_low,5,1490.2131999999992,NA,NA,low
151,sad_low,11,1491.4025000000001,NA,NA,NA
151,sad_low,12,1491.7688000000007,0.3506000000015774,left,incorrect
151,sad_low,6,1492.7851999999993,NA,NA,NA
151,sad_low,7,1493.319800000001,0.5330000000001291,right,correct
151,sad_low,9,1493.6031000000016,NA,8,correct sad
151,sad_low,3,1495.1175,NA,NA,NA
152,angry_high,5,1497.122300000001,NA,NA,high
152,angry_high,11,1498.3498000000009,NA,NA,NA
152,angry_high,12,1498.567,0.20739999999864267,right,incorrect
152,angry_high,6,1499.5869000000023,NA,NA,NA
152,angry_high,7,1500.151,0.5630000000001019,right,incorrect
152,angry_high,9,1500.3995,NA,-50,wrong angry
152,angry_high,3,1501.9156000000016,NA,NA,NA
153,sad_low,5,1504.9331000000016,NA,NA,low
153,sad_low,11,1506.1313000000007,NA,NA,NA
153,sad_low,12,1506.3476000000016,0.21189999999842257,left,incorrect
153,sad_low,6,1507.364,NA,NA,NA
153,sad_low,7,1508.0825,0.7169000000021697,right,correct
153,sad_low,9,1508.1816000000015,NA,-15,correct sad
153,sad_low,3,1509.6961000000015,NA,NA,NA
154,angry_high,5,1512.221,NA,NA,high
154,angry_high,11,1513.4116999999992,NA,NA,NA
154,angry_high,12,1513.8954000000024,0.4671999999991385,right,incorrect
154,angry_high,6,1514.9115000000002,NA,NA,NA
154,angry_high,7,1515.4669000000024,0.5539000000021588,right,incorrect
154,angry_high,9,1515.7276000000015,NA,-50,wrong angry
154,angry_high,3,1517.2435,NA,NA,NA
155,sad_low,5,1520.2686999999994,NA,NA,low
155,sad_low,11,1521.4596000000015,NA,NA,NA
155,sad_low,12,1521.9093000000007,0.4394999999999527,left,incorrect
155,sad_low,6,1522.9256999999993,NA,NA,NA
155,sad_low,7,1523.4939000000022,0.5669000000023061,right,correct
155,sad_low,9,1523.7436000000016,NA,4,correct sad
155,sad_low,3,1525.2576999999992,NA,NA,NA
156,angry_high,5,1527.2606999999994,NA,NA,high
156,angry_high,11,1528.4901000000016,NA,NA,NA
156,angry_high,12,1528.8236999999992,0.3185000000000855,right,incorrect
156,angry_high,6,1529.8401000000015,NA,NA,NA
156,angry_high,7,1530.3589000000022,0.5173999999985881,right,incorrect
156,angry_high,9,1530.6561000000015,NA,-50,wrong angry
156,angry_high,3,1532.1721000000016,NA,NA,NA
157,angry_high,5,1534.198,NA,NA,high
157,angry_high,11,1535.3881000000015,NA,NA,NA
157,angry_high,12,1535.8216000000016,0.42680000000063956,left,correct
157,angry_high,6,1536.838,NA,NA,NA
157,angry_high,7,1537.5075,0.6681000000016866,left,correct
157,angry_high,9,1537.6556999999993,NA,-9,correct angry
157,angry_high,3,1539.1698000000008,NA,NA,NA
158,sad_low,5,1541.6743000000008,NA,NA,low
158,sad_low,11,1542.8856999999994,NA,NA,NA
158,sad_low,12,1543.2358000000008,0.341100000001461,left,incorrect
158,sad_low,6,1544.2519000000023,NA,NA,NA
158,sad_low,7,1544.7856000000015,0.5322999999971216,right,correct
158,sad_low,9,1545.0706000000016,NA,8,correct sad
158,sad_low,3,1546.5845000000002,NA,NA,NA
159,angry_high,5,1548.5874000000024,NA,NA,high
159,angry_high,11,1549.8001000000015,NA,NA,NA
159,angry_high,12,1550.1493000000007,0.34509999999772845,left,correct
159,angry_high,6,1551.166,NA,NA,NA
159,angry_high,7,1551.868,0.7008999999984553,left,correct
159,angry_high,9,1551.9841999999992,NA,-13,correct angry
159,angry_high,3,1553.4986999999994,NA,NA,NA
160,angry_low,5,1555.5585,NA,NA,low
160,angry_low,11,1556.7808000000007,NA,NA,NA
160,angry_low,12,1557.247300000001,0.45080000000075415,left,correct
160,angry_low,6,1558.2651999999994,NA,NA,NA
160,angry_low,7,1558.7641000000015,0.4977000000028511,right,incorrect
160,angry_low,9,1559.0805,NA,-50,wrong angry
160,angry_low,3,1560.5961999999993,NA,NA,NA
161,sad_low,5,1563.6241000000016,NA,NA,low
161,sad_low,11,1564.8283000000008,NA,NA,NA
161,sad_low,12,1565.2783000000009,0.43609999999762294,left,incorrect
161,sad_low,6,1566.2956000000015,NA,NA,NA
161,sad_low,7,1566.8174000000022,0.5193000000008396,right,correct
161,sad_low,9,1567.0968000000007,NA,10,correct sad
161,sad_low,3,1568.6103000000007,NA,NA,NA
162,angry_high,5,1571.1131000000016,NA,NA,high
162,angry_high,11,1572.3261000000016,NA,NA,NA
162,angry_high,12,1572.776,0.438700000002882,left,correct
162,angry_high,6,1573.7933000000007,NA,NA,NA
162,angry_high,7,1574.4268000000009,0.6308000000008178,right,incorrect
162,angry_high,9,1574.6089000000022,NA,-50,wrong angry
162,angry_high,3,1576.1241999999993,NA,NA,NA
163,sad_low,5,1578.1281999999992,NA,NA,low
163,sad_low,11,1579.357,NA,NA,NA
163,sad_low,12,1580.1406999999992,0.7688000000007378,left,incorrect
163,sad_low,6,1581.1564000000023,NA,NA,NA
163,sad_low,9,1581.9876000000015,NA,-200,too slow sad
NA,sad_low,3,1583.4736999999993,NA,NA,NA
164,sad_high,5,1585.9998000000007,NA,NA,high
164,sad_high,11,1587.1881000000014,NA,NA,NA
164,sad_high,12,1587.7044000000024,0.5038000000006377,left,incorrect
164,sad_high,6,1588.7258000000008,NA,NA,NA
164,sad_high,7,1589.1886999999992,0.4611999999992804,right,correct
164,sad_high,9,1589.5234000000023,NA,17,correct sad
164,sad_high,3,1591.0361999999993,NA,NA,NA
165,sad_low,5,1594.0391999999993,NA,NA,low
165,sad_low,11,1595.2683000000009,NA,NA,NA
165,sad_low,12,1595.6518000000008,0.3716000000015356,left,incorrect
165,sad_low,6,1596.6684000000023,NA,NA,NA
165,sad_low,7,1596.9581999999994,0.2880000000000109,right,correct
165,sad_low,9,1597.4873000000007,NA,39,correct sad
165,sad_low,3,1599.0001000000016,NA,NA,NA
166,angry_high,5,1601.5030000000002,NA,NA,high
166,angry_high,11,1602.7324000000024,NA,NA,NA
166,angry_high,12,1603.2155,0.4780000000000655,left,correct
166,angry_high,6,1604.2326000000016,NA,NA,NA
166,angry_high,7,1604.7183000000007,0.4835999999977503,right,incorrect
166,angry_high,9,1605.0484000000022,NA,-50,wrong angry
166,angry_high,3,1606.5641999999993,NA,NA,NA
167,angry_low,5,1609.5905,NA,NA,low
167,angry_low,11,1610.7965000000002,NA,NA,NA
167,angry_low,12,1611.0636000000015,0.26350000000002183,left,correct
167,angry_low,6,1612.0808000000009,NA,NA,NA
167,angry_low,9,1612.8964000000024,NA,-200,too slow angry
NA,angry_low,3,1614.3961000000015,NA,NA,NA
168,sad_low,5,1616.4235,NA,NA,low
168,sad_low,11,1617.6111999999994,NA,NA,NA
168,sad_low,12,1618.0776999999994,0.45460000000161926,left,incorrect
168,sad_low,6,1619.0993000000008,NA,NA,NA
168,sad_low,7,1619.5124000000023,0.4116999999992004,right,correct
168,sad_low,9,1619.912,NA,23,correct sad
168,sad_low,3,1621.4263000000008,NA,NA,NA
169,sad_low,5,1623.4298000000008,NA,NA,low
169,sad_low,11,1624.6421000000016,NA,NA,NA
169,sad_low,12,1624.9588000000008,0.3126999999992677,left,incorrect
169,sad_low,6,1625.9753000000007,NA,NA,NA
169,sad_low,7,1626.5096999999994,0.5331000000014683,right,correct
169,sad_low,9,1626.7939000000024,NA,8,correct sad
169,sad_low,3,1628.3076999999994,NA,NA,NA
170,angry_low,5,1630.8731999999993,NA,NA,low
170,angry_low,11,1632.0899000000022,NA,NA,NA
170,angry_low,12,1632.6235000000001,0.5251000000014301,left,correct
170,angry_low,6,1633.6403000000007,NA,NA,NA
170,angry_low,7,1634.2405,0.598799999997027,left,correct
170,angry_low,9,1634.4576000000015,NA,0,correct angry
170,angry_low,3,1635.9713000000008,NA,NA,NA
171,angry_high,5,1637.9766999999993,NA,NA,high
171,angry_high,11,1639.2051000000015,NA,NA,NA
171,angry_high,12,1639.4879000000024,0.27510000000165746,left,correct
171,angry_high,6,1640.5044000000023,NA,NA,NA
171,angry_high,7,1640.9576999999992,0.4515000000001237,right,incorrect
171,angry_high,9,1641.3209000000022,NA,-50,wrong angry
171,angry_high,3,1642.8363000000008,NA,NA,NA
172,sad_high,5,1645.8566000000014,NA,NA,high
172,sad_high,11,1647.0523000000007,NA,NA,NA
172,sad_high,12,1647.2683000000009,0.20779999999695065,left,incorrect
172,sad_high,6,1648.2848000000008,NA,NA,NA
172,sad_high,7,1648.872300000001,0.5854999999999109,right,correct
172,sad_high,9,1649.087,NA,2,correct sad
172,sad_high,3,1650.6000000000001,NA,NA,NA
173,sad_low,5,1653.1038000000008,NA,NA,low
173,sad_low,11,1654.3156000000015,NA,NA,NA
173,sad_low,12,1654.5661000000016,0.24359999999774118,right,correct
173,sad_low,6,1655.5831999999994,NA,NA,NA
173,sad_low,7,1656.1181000000015,0.5336000000013428,right,correct
173,sad_low,9,1656.4004000000023,NA,8,correct sad
173,sad_low,3,1657.9148000000007,NA,NA,NA
174,angry_high,5,1659.9191000000014,NA,NA,high
174,angry_high,11,1661.1466999999993,NA,NA,NA
174,angry_high,12,1661.4474000000023,0.2853999999986172,right,incorrect
174,angry_high,6,1662.463800000001,NA,NA,NA
174,angry_high,7,1662.7833000000007,0.31799999999998363,left,correct
174,angry_high,9,1663.2829000000022,NA,35,correct angry
174,angry_high,3,1664.7951000000016,NA,NA,NA
175,angry_low,5,1667.2999000000023,NA,NA,low
175,angry_low,11,1668.5116000000016,NA,NA,NA
175,angry_low,12,1669.0781999999992,0.5556999999992058,right,incorrect
175,angry_low,6,1670.0958000000007,NA,NA,NA
175,angry_low,7,1670.4301000000016,0.3331000000016502,right,incorrect
175,angry_low,9,1670.9106000000015,NA,-50,wrong angry
175,angry_low,3,1672.4261999999992,NA,NA,NA
176,sad_low,5,1675.4539000000022,NA,NA,low
176,sad_low,11,1676.6421999999993,NA,NA,NA
176,sad_low,12,1677.0258000000008,0.3716000000015356,right,correct
176,sad_low,6,1678.0420000000001,NA,NA,NA
176,sad_low,7,1678.5126000000016,0.46899999999982356,right,correct
176,sad_low,9,1678.8605,NA,16,correct sad
176,sad_low,3,1680.3744000000022,NA,NA,NA
177,angry_high,5,1682.8781999999992,NA,NA,high
177,angry_high,11,1684.0936000000015,NA,NA,NA
177,angry_high,12,1684.5234000000023,0.4142000000031203,left,correct
177,angry_high,6,1685.54,NA,NA,NA
177,angry_high,7,1685.9596999999992,0.41830000000072687,left,correct
177,angry_high,9,1686.3586999999993,NA,23,correct angry
177,angry_high,3,1687.8714000000023,NA,NA,NA
178,sad_low,5,1689.8766000000016,NA,NA,low
178,sad_low,11,1691.1036999999992,NA,NA,NA
178,sad_low,12,1691.6046000000015,0.4884000000022297,right,correct
178,sad_low,6,1692.6215,NA,NA,NA
178,sad_low,7,1693.0559000000023,0.4331999999992604,right,correct
178,sad_low,9,1693.4379000000022,NA,21,correct sad
178,sad_low,3,1694.9525,NA,NA,NA
179,sad_low,5,1697.9556999999993,NA,NA,low
179,sad_low,11,1699.185,NA,NA,NA
179,sad_low,12,1699.7189000000023,0.5192999999972017,right,correct
179,sad_low,6,1700.7348000000009,NA,NA,NA
179,sad_low,7,1701.2553000000007,0.5181999999992968,right,correct
179,sad_low,9,1701.5521999999994,NA,10,correct sad
179,sad_low,3,1703.0669000000023,NA,NA,NA
180,sad_high,5,1705.1146999999994,NA,NA,high
180,sad_high,11,1706.3326000000015,NA,NA,NA
180,sad_high,12,1706.5828000000008,0.24019999999927677,left,incorrect
180,sad_high,6,1707.5990000000002,NA,NA,NA
180,sad_high,7,1708.1489000000022,0.5489000000020496,left,incorrect
180,sad_high,9,1708.3990000000001,NA,-50,wrong sad
180,sad_high,3,1709.9148000000007,NA,NA,NA
181,angry_high,5,1712.4391999999993,NA,NA,high
181,angry_high,11,1713.6301000000014,NA,NA,NA
181,angry_high,12,1714.0634000000023,0.41940000000226973,right,incorrect
181,angry_high,6,1715.0799000000022,NA,NA,NA
181,angry_high,7,1715.614,0.5328000000006341,right,incorrect
181,angry_high,9,1715.8803000000007,NA,-50,wrong angry
181,angry_high,3,1717.3951999999992,NA,NA,NA
182,sad_low,5,1719.4215000000002,NA,NA,low
182,sad_low,11,1720.6279000000022,NA,NA,NA
182,sad_low,12,1720.978300000001,0.3364999999998872,left,incorrect
182,sad_low,6,1721.9941999999994,NA,NA,NA
182,sad_low,7,1722.5626000000016,0.5671000000015738,right,correct
182,sad_low,9,1722.8126999999993,NA,4,correct sad
182,sad_low,3,1724.3265000000001,NA,NA,NA
183,angry_high,5,1727.3441999999993,NA,NA,high
183,angry_high,11,1728.559,NA,NA,NA
183,angry_high,12,1729.1264000000024,0.5581999999992604,left,correct
183,angry_high,6,1730.1421999999993,NA,NA,NA
183,angry_high,7,1730.6926000000014,0.5493000000008124,left,correct
183,angry_high,9,1730.9591999999993,NA,6,correct angry
183,angry_high,3,1732.4740000000002,NA,NA,NA
184,angry_high,5,1734.9786999999992,NA,NA,high
184,angry_high,11,1736.2059000000022,NA,NA,NA
184,angry_high,12,1736.7061000000015,0.4928000000006705,left,correct
184,angry_high,6,1737.7225,NA,NA,NA
184,angry_high,7,1738.3400000000001,0.6161999999992531,left,correct
184,angry_high,9,1738.5244000000023,NA,-2,correct angry
184,angry_high,3,1740.0384000000022,NA,NA,NA
185,sad_high,5,1742.0421000000015,NA,NA,high
185,sad_high,11,1743.2541000000015,NA,NA,NA
185,sad_high,12,1743.7209000000023,0.45230000000083237,left,incorrect
185,sad_high,6,1744.7373000000007,NA,NA,NA
185,sad_high,7,1745.3548000000008,0.6158999999986463,right,correct
185,sad_high,9,1745.5546999999992,NA,-2,correct sad
185,sad_high,3,1747.0686000000017,NA,NA,NA
186,angry_high,5,1749.5721999999994,NA,NA,high
186,angry_high,11,1750.7848000000008,NA,NA,NA
186,angry_high,12,1751.1016000000016,0.3040000000000873,left,correct
186,angry_high,6,1752.1183000000008,NA,NA,NA
186,angry_high,7,1752.6973000000007,0.5773999999985335,left,correct
186,angry_high,9,1752.9364000000023,NA,3,correct angry
186,angry_high,3,1754.4498000000008,NA,NA,NA
187,angry_high,5,1757.4758000000008,NA,NA,high
187,angry_high,11,1758.6821000000016,NA,NA,NA
187,angry_high,12,1759.0151999999994,0.32160000000158107,left,correct
187,angry_high,6,1760.0321999999992,NA,NA,NA
187,angry_high,7,1760.6676000000016,0.6337000000030457,right,incorrect
187,angry_high,9,1760.8486000000016,NA,-50,wrong angry
187,angry_high,3,1762.3649000000023,NA,NA,NA
188,sad_low,5,1765.3881999999994,NA,NA,low
188,sad_low,11,1766.5968000000007,NA,NA,NA
188,sad_low,12,1767.2806000000016,0.6799000000021351,right,correct
188,sad_low,6,1768.2973000000009,NA,NA,NA
188,sad_low,7,1768.7481999999993,0.44959999999787215,right,correct
188,sad_low,9,1769.1144000000022,NA,19,correct sad
188,sad_low,3,1770.6285,NA,NA,NA
189,angry_high,5,1773.132,NA,NA,high
189,angry_high,11,1774.3603000000007,NA,NA,NA
189,angry_high,12,1774.5438000000008,0.16979999999693973,left,correct
189,angry_high,6,1775.5603000000008,NA,NA,NA
189,angry_high,7,1776.1321000000016,0.5703000000007705,left,correct
189,angry_high,9,1776.3796000000016,NA,4,correct angry
189,angry_high,3,1777.892300000001,NA,NA,NA
190,sad_low,5,1779.9624000000024,NA,NA,low
190,sad_low,11,1781.1746999999993,NA,NA,NA
190,sad_low,12,1781.3586000000016,0.17529999999715073,right,correct
190,sad_low,6,1782.3753000000008,NA,NA,NA
190,sad_low,7,1782.8776000000016,0.5008000000007087,right,correct
190,sad_low,9,1783.1929000000023,NA,12,correct sad
190,sad_low,3,1784.7065,NA,NA,NA
191,sad_low,5,1787.2116000000015,NA,NA,low
191,sad_low,11,1788.4224000000022,NA,NA,NA
191,sad_low,12,1788.656,0.2233999999984917,right,correct
191,sad_low,6,1789.6731999999993,NA,NA,NA
191,sad_low,7,1790.3075000000001,0.6327000000030694,right,correct
191,sad_low,9,1790.4911999999993,NA,-4,correct sad
191,sad_low,3,1792.0051000000014,NA,NA,NA
192,angry_low,5,1795.0245,NA,NA,low
192,angry_low,11,1796.2206999999994,NA,NA,NA
192,angry_low,12,1797.4539000000022,1.2243000000007669,right,incorrect
192,angry_low,6,1798.4696999999992,NA,NA,NA
192,angry_low,7,1798.8036999999993,0.33240000000228065,right,incorrect
192,angry_low,9,1799.2856999999992,NA,-50,wrong angry
192,angry_low,3,1800.8021999999994,NA,NA,NA
193,angry_high,5,1803.8054000000022,NA,NA,high
193,angry_high,11,1805.0335,NA,NA,NA
193,angry_high,12,1805.6509000000024,0.6085000000000491,right,incorrect
193,angry_high,6,1806.6676999999993,NA,NA,NA
193,angry_high,7,1807.4204000000022,0.7513000000005832,left,correct
193,angry_high,9,1807.4854000000023,NA,-19,correct angry
193,angry_high,3,1808.9995000000001,NA,NA,NA
194,angry_low,5,1811.0033000000008,NA,NA,low
194,angry_low,11,1812.2315,NA,NA,NA
194,angry_low,12,1812.6989000000024,0.4580000000000837,left,correct
194,angry_low,6,1813.7149000000022,NA,NA,NA
194,angry_low,7,1814.4495,0.7335000000000491,left,correct
194,angry_low,9,1814.517,NA,-17,correct angry
194,angry_low,3,1816.0306000000016,NA,NA,NA
195,sad_low,5,1819.0479000000023,NA,NA,low
195,sad_low,11,1820.2619000000022,NA,NA,NA
195,sad_low,12,1820.5794000000024,0.3088000000007014,left,incorrect
195,sad_low,6,1821.5953000000009,NA,NA,NA
195,sad_low,7,1822.1156000000015,0.5183000000006359,right,correct
195,sad_low,9,1822.413,NA,10,correct sad
195,sad_low,3,1823.9275,NA,NA,NA
196,angry_high,5,1826.4311999999993,NA,NA,high
196,angry_high,11,1827.6596000000015,NA,NA,NA
196,angry_high,12,1828.077,0.40640000000234977,right,incorrect
196,angry_high,6,1829.0941999999993,NA,NA,NA
196,angry_high,7,1829.7266000000016,0.6311000000014246,right,incorrect
196,angry_high,9,1829.9093000000007,NA,-50,wrong angry
196,angry_high,3,1831.425,NA,NA,NA
197,sad_low,5,1833.4488000000008,NA,NA,low
197,sad_low,11,1834.641,NA,NA,NA
197,sad_low,12,1834.8584000000023,0.20250000000010004,right,correct
197,sad_low,6,1835.8746999999994,NA,NA,NA
197,sad_low,7,1836.3414000000023,0.46480000000065047,right,correct
197,sad_low,9,1836.6921000000016,NA,17,correct sad
197,sad_low,3,1838.2059000000022,NA,NA,NA
198,angry_high,5,1841.2324000000024,NA,NA,high
198,angry_high,11,1842.4216000000015,NA,NA,NA
198,angry_high,12,1842.7883000000008,0.3611000000016702,left,correct
198,angry_high,6,1843.8054000000022,NA,NA,NA
198,angry_high,7,1844.257300000001,0.45050000000014734,left,correct
198,angry_high,9,1844.6241000000016,NA,18,correct angry
198,angry_high,3,1846.1371999999992,NA,NA,NA
199,sad_low,5,1848.6576999999993,NA,NA,low
199,sad_low,11,1849.8695,NA,NA,NA
199,sad_low,12,1850.0716000000016,0.18690000000219698,right,correct
199,sad_low,6,1851.0865000000001,NA,NA,NA
199,sad_low,7,1851.6056000000015,0.5178000000007614,right,correct
199,sad_low,9,1851.9055,NA,10,correct sad
199,sad_low,3,1853.4175,NA,NA,NA